time, gyro_x, gyro_y, gyro_z, accel_x, accel_y, accel_z
[0:00:00], 8, 136, -4, 73, 3193, 16426
[0:00:00.100000], -10, 158, -13, 124, 2895, 16338
[0:00:00.200000], 5, 146, 9, 37, 3069, 16403
[0:00:00.300000], -10, 141, -10, 247, 3156, 16339
[0:00:00.400000], 7, 135, 13, 209, 2982, 16394
[0:00:00.500000], 21, 136, -3, 584, 3123, 16335
[0:00:00.600000], 9, 164, -9, 417, 3187, 16456
[0:00:00.700000], 22, 162, 5, 586, 2844, 16285
[0:00:00.800000], 13, 142, -7, 721, 2944, 16264
[0:00:00.900000], 0, 152, 19, 774, 2865, 16355
[0:00:01], 23, 142, 15, 815, 3051, 16252
[0:00:01.100000], 6, 134, 14, 779, 2913, 16376
[0:00:01.200000], 12, 158, 19, 1082, 3179, 16249
[0:00:01.300000], 22, 138, 22, 1150, 3027, 16360
[0:00:01.400000], 10, 152, 2, 1280, 2908, 16390
[0:00:01.500000], 14, 147, 11, 1261, 2805, 16255
[0:00:01.600000], 35, 143, 6, 1050, 3044, 16286
[0:00:01.700000], 27, 157, -2, 1262, 2938, 16246
[0:00:01.800000], 28, 152, 2, 1354, 3002, 16440
[0:00:01.900000], 38, 133, 18, 1260, 2860, 16246
[0:00:02], 21, 134, 12, 1573, 2626, 16496
[0:00:02.100000], 44, 152, 0, 1350, 2772, 16429
[0:00:02.200000], 43, 152, 0, 1377, 2720, 16266
[0:00:02.300000], 22, 149, 22, 1932, 3064, 16400
[0:00:02.400000], 47, 138, 2, 1683, 2958, 16394
[0:00:02.500000], 43, 155, 10, 1996, 2733, 16432
[0:00:02.600000], 26, 137, 0, 2121, 2635, 16289
[0:00:02.700000], 26, 151, 2, 1886, 2812, 16245
[0:00:02.800000], 41, 157, 2, 2032, 2651, 16459
[0:00:02.900000], 51, 144, 12, 2015, 2804, 16304
[0:00:03], 47, 139, 14, 2365, 2786, 16519
[0:00:03.100000], 61, 138, 3, 2462, 2556, 16425
[0:00:03.200000], 40, 151, 19, 2105, 2433, 16455
[0:00:03.300000], 59, 157, 32, 2592, 2831, 16269
[0:00:03.400000], 61, 140, 30, 2304, 2740, 16311
[0:00:03.500000], 63, 142, 21, 2501, 2491, 16401
[0:00:03.600000], 38, 130, 11, 2633, 2643, 16325
[0:00:03.700000], 47, 142, 29, 2851, 2305, 16253
[0:00:03.800000], 54, 137, 11, 2609, 2531, 16316
[0:00:03.900000], 55, 138, 33, 2756, 2678, 16284
[0:00:04], 57, 151, 27, 2981, 2471, 16455
[0:00:04.100000], 61, 134, 17, 2669, 2373, 16385
[0:00:04.200000], 75, 132, 28, 2995, 2282, 16311
[0:00:04.300000], 62, 141, 19, 2896, 2286, 16247
[0:00:04.400000], 57, 133, 19, 2923, 2570, 16248
[0:00:04.500000], 76, 152, 23, 3144, 2524, 16477
[0:00:04.600000], 56, 132, 17, 3335, 2469, 16371
[0:00:04.700000], 76, 150, 15, 3219, 2256, 16270
[0:00:04.800000], 71, 130, 14, 3544, 2449, 16297
[0:00:04.900000], 74, 151, 25, 3350, 2264, 16318
[0:00:05], 86, 134, 41, 3490, 2019, 16433
[0:00:05.100000], 66, 153, 30, 3445, 2007, 16514
[0:00:05.200000], 77, 141, 41, 3688, 2309, 16473
[0:00:05.300000], 63, 153, 31, 3795, 2284, 16282
[0:00:05.400000], 69, 133, 32, 3723, 1930, 16523
[0:00:05.500000], 87, 140, 30, 3530, 1939, 16420
[0:00:05.600000], 91, 136, 27, 3915, 2135, 16488
[0:00:05.700000], 84, 133, 45, 3634, 1777, 16340
[0:00:05.800000], 82, 133, 29, 3645, 1928, 16397
[0:00:05.900000], 74, 125, 34, 3637, 2086, 16249
[0:00:06], 76, 141, 40, 3770, 1909, 16272
[0:00:06.100000], 88, 145, 30, 3846, 1904, 16331
[0:00:06.200000], 78, 136, 39, 4020, 1752, 16255
[0:00:06.300000], 94, 126, 22, 4129, 1654, 16255
[0:00:06.400000], 104, 124, 38, 4063, 1480, 16489
[0:00:06.500000], 80, 129, 37, 4037, 1694, 16363
[0:00:06.600000], 83, 142, 33, 4396, 1744, 16500
[0:00:06.700000], 98, 116, 47, 4081, 1520, 16246
[0:00:06.800000], 99, 132, 48, 4301, 1324, 16367
[0:00:06.900000], 91, 144, 42, 4282, 1648, 16251
[0:00:07], 104, 127, 36, 4560, 1513, 16354
[0:00:07.100000], 108, 114, 44, 4575, 1423, 16314
[0:00:07.200000], 100, 126, 48, 4496, 1214, 16402
[0:00:07.300000], 96, 143, 52, 4601, 1613, 16303
[0:00:07.400000], 102, 141, 49, 4582, 1226, 16385
[0:00:07.500000], 94, 118, 49, 4492, 1505, 16354
[0:00:07.600000], 106, 135, 32, 4412, 1312, 16301
[0:00:07.700000], 118, 131, 30, 4566, 1186, 16350
[0:00:07.800000], 100, 114, 31, 4818, 1090, 16309
[0:00:07.900000], 124, 129, 38, 4434, 956, 16425
[0:00:08], 111, 138, 47, 4576, 1062, 16339
[0:00:08.100000], 122, 111, 40, 4881, 1244, 16255
[0:00:08.200000], 100, 107, 32, 4944, 889, 16454
[0:00:08.300000], 124, 113, 35, 4868, 837, 16457
[0:00:08.400000], 124, 107, 35, 4691, 871, 16405
[0:00:08.500000], 106, 113, 44, 4609, 830, 16359
[0:00:08.600000], 133, 106, 60, 4949, 819, 16312
[0:00:08.700000], 125, 107, 44, 4899, 780, 16328
[0:00:08.800000], 134, 118, 38, 4763, 831, 16471
[0:00:08.900000], 128, 129, 51, 4946, 530, 16263
[0:00:09], 111, 125, 60, 4638, 470, 16346
[0:00:09.100000], 112, 104, 46, 5082, 805, 16368
[0:00:09.200000], 112, 117, 33, 4927, 758, 16234
[0:00:09.300000], 142, 103, 36, 5040, 310, 16243
[0:00:09.400000], 118, 102, 35, 4767, 594, 16504
[0:00:09.500000], 127, 110, 55, 4898, 445, 16469
[0:00:09.600000], 143, 125, 55, 4926, 247, 16366
[0:00:09.700000], 118, 127, 35, 4965, 146, 16473
[0:00:09.800000], 142, 97, 65, 5203, 103, 16528
[0:00:09.900000], 132, 116, 40, 4917, 88, 16439
[0:00:10], 127, 111, 59, 4961, 328, 16504
[0:00:10.100000], 127, 122, 45, 5241, -34, 16458
[0:00:10.200000], 132, 100, 38, 4921, 21, 16240
[0:00:10.300000], 139, 111, 51, 4763, 213, 16310
[0:00:10.400000], 132, 106, 49, 5144, -61, 16398
[0:00:10.500000], 129, 99, 63, 4863, -103, 16274
[0:00:10.600000], 139, 101, 45, 5054, 16, 16278
[0:00:10.700000], 134, 107, 62, 5030, -123, 16307
[0:00:10.800000], 148, 101, 58, 4941, -192, 16508
[0:00:10.900000], 150, 87, 55, 4785, -123, 16462
[0:00:11], 157, 88, 58, 4960, -25, 16340
[0:00:11.100000], 156, 98, 55, 4856, -375, 16286
[0:00:11.200000], 156, 113, 46, 5118, -428, 16255
[0:00:11.300000], 138, 87, 50, 4981, -353, 16447
[0:00:11.400000], 158, 98, 72, 5007, -372, 16257
[0:00:11.500000], 164, 85, 49, 4694, -654, 16380
[0:00:11.600000], 156, 111, 45, 4837, -401, 16237
[0:00:11.700000], 161, 91, 71, 5106, -334, 16429
[0:00:11.800000], 161, 93, 47, 5033, -635, 16369
[0:00:11.900000], 162, 79, 75, 4703, -587, 16338
[0:00:12], 150, 105, 72, 4671, -667, 16296
[0:00:12.100000], 156, 104, 64, 4837, -532, 16406
[0:00:12.200000], 159, 102, 65, 4699, -984, 16282
[0:00:12.300000], 144, 79, 63, 4906, -1057, 16384
[0:00:12.400000], 172, 100, 77, 4767, -1027, 16531
[0:00:12.500000], 149, 92, 78, 4539, -961, 16362
[0:00:12.600000], 156, 101, 59, 4919, -1003, 16320
[0:00:12.700000], 151, 84, 49, 4677, -1035, 16392
[0:00:12.800000], 151, 101, 68, 4864, -1222, 16433
[0:00:12.900000], 165, 71, 72, 4536, -1294, 16504
[0:00:13], 178, 88, 77, 4692, -1099, 16423
[0:00:13.100000], 165, 83, 59, 4598, -1271, 16262
[0:00:13.200000], 154, 90, 52, 4783, -968, 16417
[0:00:13.300000], 169, 78, 67, 4440, -1096, 16513
[0:00:13.400000], 165, 86, 79, 4555, -1507, 16476
[0:00:13.500000], 167, 91, 64, 4742, -1313, 16348
[0:00:13.600000], 166, 66, 69, 4619, -1205, 16408
[0:00:13.700000], 158, 67, 60, 4497, -1605, 16482
[0:00:13.800000], 183, 80, 74, 4541, -1247, 16391
[0:00:13.900000], 171, 76, 60, 4382, -1355, 16505
[0:00:14], 167, 84, 63, 4282, -1304, 16510
[0:00:14.100000], 186, 65, 70, 4236, -1466, 16369
[0:00:14.200000], 164, 74, 63, 4319, -1734, 16502
[0:00:14.300000], 164, 75, 71, 4402, -1477, 16426
[0:00:14.400000], 179, 78, 63, 4247, -1808, 16440
[0:00:14.500000], 168, 73, 71, 4180, -1912, 16493
[0:00:14.600000], 187, 53, 82, 3840, -1826, 16235
[0:00:14.700000], 179, 65, 87, 4254, -1954, 16375
[0:00:14.800000], 191, 55, 61, 3944, -1694, 16238
[0:00:14.900000], 186, 77, 70, 4016, -1742, 16255
[0:00:15], 183, 72, 63, 3724, -1692, 16409
[0:00:15.100000], 173, 56, 90, 3810, -1788, 16446
[0:00:15.200000], 185, 52, 61, 3937, -1728, 16468
[0:00:15.300000], 180, 75, 76, 3531, -1972, 16473
[0:00:15.400000], 188, 63, 66, 3595, -1852, 16352
[0:00:15.500000], 180, 70, 86, 3448, -1905, 16520
[0:00:15.600000], 190, 62, 90, 3506, -1947, 16318
[0:00:15.700000], 180, 69, 62, 3747, -2364, 16487
[0:00:15.800000], 200, 63, 70, 3318, -2079, 16294
[0:00:15.900000], 175, 47, 76, 3533, -1940, 16379
[0:00:16], 182, 44, 84, 3603, -2178, 16432
[0:00:16.100000], 198, 46, 66, 3206, -2175, 16325
[0:00:16.200000], 186, 64, 75, 3453, -2341, 16379
[0:00:16.300000], 181, 42, 90, 3395, -2154, 16246
[0:00:16.400000], 189, 38, 71, 3026, -2309, 16454
[0:00:16.500000], 203, 38, 68, 3194, -2255, 16235
[0:00:16.600000], 200, 50, 94, 3042, -2533, 16437
[0:00:16.700000], 174, 35, 73, 3123, -2573, 16417
[0:00:16.800000], 184, 48, 67, 2705, -2224, 16256
[0:00:16.900000], 178, 44, 82, 2637, -2343, 16235
[0:00:17], 200, 56, 86, 2912, -2558, 16453
[0:00:17.100000], 202, 40, 98, 2943, -2746, 16255
[0:00:17.200000], 181, 32, 87, 2413, -2293, 16288
[0:00:17.300000], 179, 34, 94, 2585, -2620, 16253
[0:00:17.400000], 197, 39, 87, 2774, -2635, 16516
[0:00:17.500000], 208, 35, 93, 2431, -2590, 16520
[0:00:17.600000], 187, 28, 88, 2491, -2810, 16467
[0:00:17.700000], 181, 26, 97, 2261, -2505, 16444
[0:00:17.800000], 190, 46, 88, 2312, -2661, 16460
[0:00:17.900000], 194, 40, 93, 2096, -2914, 16413
[0:00:18], 210, 34, 98, 2124, -2644, 16266
[0:00:18.100000], 199, 34, 84, 2305, -2642, 16332
[0:00:18.200000], 194, 19, 73, 2082, -2896, 16241
[0:00:18.300000], 182, 37, 73, 1755, -2676, 16427
[0:00:18.400000], 185, 23, 77, 1639, -2692, 16331
[0:00:18.500000], 202, 18, 102, 1610, -2861, 16334
[0:00:18.600000], 181, 12, 104, 1815, -2927, 16407
[0:00:18.700000], 197, 23, 76, 1883, -2878, 16508
[0:00:18.800000], 186, 10, 94, 1540, -3079, 16480
[0:00:18.900000], 195, 22, 79, 1286, -3029, 16263
[0:00:19], 191, 31, 77, 1653, -2736, 16268
[0:00:19.100000], 196, 31, 100, 1189, -3080, 16441
[0:00:19.200000], 188, 28, 95, 1217, -2875, 16335
[0:00:19.300000], 183, 27, 76, 1034, -2911, 16299
[0:00:19.400000], 199, 11, 80, 1150, -3044, 16430
[0:00:19.500000], 207, 27, 80, 1146, -2825, 16351
[0:00:19.600000], 186, 11, 89, 917, -2846, 16376
[0:00:19.700000], 206, 19, 91, 702, -3068, 16352
[0:00:19.800000], 199, 26, 91, 1039, -3193, 16277
[0:00:19.900000], 190, 19, 82, 781, -3020, 16454
[0:00:20], 194, 0, 108, 571, -2969, 16248
[0:00:20.100000], 203, 3, 101, 880, -2832, 16455
[0:00:20.200000], 188, -2, 84, 681, -3207, 16529
[0:00:20.300000], 184, 14, 93, 315, -3191, 16533
[0:00:20.400000], 196, 3, 102, 656, -2784, 16517
[0:00:20.500000], 213, 4, 107, 102, -2835, 16496
[0:00:20.600000], 204, -5, 91, 89, -3150, 16394
[0:00:20.700000], 214, -2, 103, 134, -3238, 16376
[0:00:20.800000], 190, 7, 97, 26, -2862, 16311
[0:00:20.900000], 196, -8, 95, 187, -2883, 16243
[0:00:21], 204, 0, 93, -166, -2977, 16493
[0:00:21.100000], 207, -16, 85, -213, -3140, 16529
[0:00:21.200000], 203, -2, 89, -79, -2975, 16252
[0:00:21.300000], 200, -10, 110, -459, -2755, 16488
[0:00:21.400000], 189, -2, 94, -322, -3166, 16236
[0:00:21.500000], 202, 6, 99, -446, -3227, 16329
[0:00:21.600000], 209, -11, 86, -313, -2916, 16499
[0:00:21.700000], 211, -20, 85, -323, -3031, 16262
[0:00:21.800000], 194, 0, 97, -701, -3012, 16298
[0:00:21.900000], 194, 0, 99, -698, -3166, 16277
[0:00:22], 202, -19, 101, -953, -2927, 16529
[0:00:22.100000], 192, 0, 88, -1001, -2706, 16473
[0:00:22.200000], 207, -24, 111, -1021, -2734, 16489
[0:00:22.300000], 207, -18, 116, -791, -2926, 16377
[0:00:22.400000], 189, -28, 88, -1191, -3165, 16486
[0:00:22.500000], 198, -23, 98, -1251, -3089, 16264
[0:00:22.600000], 210, -29, 114, -1289, -3016, 16302
[0:00:22.700000], 184, -19, 117, -1187, -2765, 16354
[0:00:22.800000], 193, -20, 105, -1403, -2678, 16304
[0:00:22.900000], 202, -19, 117, -1469, -2995, 16387
[0:00:23], 199, -28, 103, -1455, -2904, 16332
[0:00:23.100000], 187, -27, 92, -1838, -2904, 16532
[0:00:23.200000], 189, -24, 95, -1485, -2876, 16315
[0:00:23.300000], 191, -25, 110, -1941, -2985, 16392
[0:00:23.400000], 182, -15, 103, -1900, -2971, 16470
[0:00:23.500000], 211, -23, 102, -1753, -2553, 16284
[0:00:23.600000], 195, -17, 90, -1719, -2697, 16451
[0:00:23.700000], 185, -43, 103, -2176, -2920, 16250
[0:00:23.800000], 180, -40, 117, -1907, -2898, 16340
[0:00:23.900000], 182, -23, 90, -1952, -2545, 16288
[0:00:24], 200, -31, 94, -2129, -2828, 16304
[0:00:24.100000], 189, -23, 121, -2144, -2461, 16525
[0:00:24.200000], 191, -44, 115, -2229, -2851, 16487
[0:00:24.300000], 184, -49, 91, -2515, -2793, 16460
[0:00:24.400000], 192, -49, 104, -2699, -2837, 16386
[0:00:24.500000], 190, -28, 122, -2479, -2578, 16278
[0:00:24.600000], 178, -37, 120, -2552, -2452, 16273
[0:00:24.700000], 200, -34, 111, -2862, -2340, 16534
[0:00:24.800000], 203, -42, 98, -2670, -2612, 16509
[0:00:24.900000], 178, -34, 96, -2789, -2517, 16528
[0:00:25], 186, -45, 116, -2715, -2710, 16304
[0:00:25.100000], 184, -43, 93, -3028, -2560, 16356
[0:00:25.200000], 192, -38, 110, -3106, -2564, 16483
[0:00:25.300000], 177, -50, 97, -3001, -2506, 16309
[0:00:25.400000], 183, -44, 123, -3144, -2561, 16491
[0:00:25.500000], 181, -50, 95, -2999, -2373, 16430
[0:00:25.600000], 174, -54, 97, -3368, -2366, 16442
[0:00:25.700000], 195, -43, 99, -3362, -2093, 16236
[0:00:25.800000], 200, -59, 107, -3228, -1992, 16361
[0:00:25.900000], 197, -69, 113, -3617, -2046, 16359
[0:00:26], 170, -57, 115, -3678, -2410, 16377
[0:00:26.100000], 181, -67, 117, -3548, -1922, 16488
[0:00:26.200000], 184, -49, 106, -3611, -2123, 16399
[0:00:26.300000], 193, -68, 113, -3668, -2158, 16352
[0:00:26.400000], 189, -65, 117, -3723, -1982, 16304
[0:00:26.500000], 184, -60, 121, -3664, -1989, 16482
[0:00:26.600000], 167, -55, 102, -3954, -2173, 16257
[0:00:26.700000], 177, -48, 125, -3586, -2141, 16239
[0:00:26.800000], 171, -49, 102, -4020, -1960, 16414
[0:00:26.900000], 182, -57, 123, -3879, -1831, 16240
[0:00:27], 186, -73, 105, -3696, -1778, 16304
[0:00:27.100000], 172, -63, 123, -3818, -1698, 16371
[0:00:27.200000], 182, -54, 126, -3838, -1746, 16524
[0:00:27.300000], 165, -83, 110, -3850, -1580, 16321
[0:00:27.400000], 170, -66, 98, -3982, -1687, 16423
[0:00:27.500000], 186, -69, 127, -4079, -1442, 16487
[0:00:27.600000], 168, -74, 103, -3982, -1668, 16379
[0:00:27.700000], 160, -65, 123, -4306, -1679, 16284
[0:00:27.800000], 180, -58, 106, -4035, -1457, 16500
[0:00:27.900000], 182, -89, 123, -4489, -1567, 16333
[0:00:28], 162, -66, 125, -4154, -1395, 16528
[0:00:28.100000], 176, -84, 119, -4229, -1250, 16425
[0:00:28.200000], 181, -70, 121, -4369, -1370, 16301
[0:00:28.300000], 167, -65, 109, -4370, -1172, 16447
[0:00:28.400000], 166, -74, 113, -4418, -1554, 16458
[0:00:28.500000], 161, -68, 115, -4468, -1401, 16286
[0:00:28.600000], 181, -68, 130, -4339, -1097, 16463
[0:00:28.700000], 153, -86, 128, -4545, -1314, 16316
[0:00:28.800000], 169, -97, 126, -4571, -1133, 16350
[0:00:28.900000], 169, -83, 115, -4856, -885, 16387
[0:00:29], 150, -90, 125, -4688, -1271, 16361
[0:00:29.100000], 158, -72, 116, -4852, -1123, 16492
[0:00:29.200000], 155, -94, 105, -4915, -828, 16461
[0:00:29.300000], 154, -88, 127, -4675, -890, 16521
[0:00:29.400000], 155, -92, 104, -4911, -935, 16417
[0:00:29.500000], 174, -91, 124, -4928, -812, 16359
[0:00:29.600000], 148, -93, 123, -4994, -600, 16256
[0:00:29.700000], 156, -95, 108, -4831, -833, 16522
[0:00:29.800000], 153, -81, 120, -4822, -841, 16457
[0:00:29.900000], 156, -89, 126, -5109, -435, 16413
[0:00:30], 140, -82, 117, -4641, -727, 16501
[0:00:30.100000], 139, -104, 131, -5149, -702, 16343
[0:00:30.200000], 147, -86, 118, -5016, -540, 16250
[0:00:30.300000], 155, -106, 115, -4829, -708, 16520
[0:00:30.400000], 136, -110, 107, -5131, -704, 16341
[0:00:30.500000], 160, -95, 129, -4796, -409, 16311
[0:00:30.600000], 139, -109, 117, -5113, -154, 16326
[0:00:30.700000], 150, -104, 130, -5137, -111, 16414
[0:00:30.800000], 138, -107, 124, -4985, -188, 16335
[0:00:30.900000], 142, -100, 122, -4766, -194, 16470
[0:00:31], 145, -114, 116, -5091, -20, 16290
[0:00:31.100000], 152, -101, 128, -5057, -101, 16334
[0:00:31.200000], 137, -106, 113, -5104, -59, 16493
[0:00:31.300000], 138, -96, 129, -5082, -74, 16344
[0:00:31.400000], 154, -108, 108, -5107, -21, 16473
[0:00:31.500000], 126, -113, 106, -5145, 277, 16448
[0:00:31.600000], 146, -103, 132, -4750, -8, 16316
[0:00:31.700000], 149, -98, 117, -4772, 202, 16381
[0:00:31.800000], 123, -119, 117, -5188, -24, 16399
[0:00:31.900000], 132, -103, 128, -5170, 239, 16452
[0:00:32], 137, -95, 114, -4867, 89, 16348
[0:00:32.100000], 125, -119, 104, -4736, 176, 16517
[0:00:32.200000], 121, -101, 111, -5039, 409, 16339
[0:00:32.300000], 118, -103, 105, -4748, 336, 16337
[0:00:32.400000], 133, -126, 125, -4821, 470, 16300
[0:00:32.500000], 142, -120, 126, -4723, 240, 16281
[0:00:32.600000], 116, -121, 112, -4872, 432, 16299
[0:00:32.700000], 132, -113, 110, -5086, 363, 16300
[0:00:32.800000], 126, -117, 118, -5066, 455, 16469
[0:00:32.900000], 110, -125, 109, -5108, 687, 16515
[0:00:33], 118, -128, 110, -4837, 740, 16305
[0:00:33.100000], 132, -126, 128, -4776, 626, 16434
[0:00:33.200000], 130, -113, 128, -4693, 734, 16389
[0:00:33.300000], 109, -106, 120, -4691, 861, 16377
[0:00:33.400000], 119, -126, 109, -4568, 841, 16269
[0:00:33.500000], 116, -130, 128, -4712, 1129, 16234
[0:00:33.600000], 120, -111, 130, -4818, 1020, 16437
[0:00:33.700000], 120, -109, 112, -4847, 1115, 16282
[0:00:33.800000], 120, -113, 111, -4829, 902, 16367
[0:00:33.900000], 120, -110, 106, -4413, 899, 16516
[0:00:34], 114, -117, 109, -4647, 1213, 16381
[0:00:34.100000], 104, -116, 115, -4674, 1266, 16497
[0:00:34.200000], 116, -115, 126, -4692, 999, 16365
[0:00:34.300000], 102, -125, 116, -4573, 1325, 16407
[0:00:34.400000], 101, -116, 129, -4476, 1188, 16239
[0:00:34.500000], 98, -134, 107, -4560, 1105, 16447
[0:00:34.600000], 101, -118, 130, -4452, 1437, 16396
[0:00:34.700000], 110, -114, 106, -4341, 1533, 16341
[0:00:34.800000], 112, -131, 124, -4195, 1568, 16488
[0:00:34.900000], 96, -121, 108, -4452, 1403, 16364
[0:00:35], 88, -118, 125, -4242, 1591, 16414
[0:00:35.100000], 98, -141, 107, -4353, 1440, 16441
[0:00:35.200000], 89, -140, 106, -4033, 1477, 16255
[0:00:35.300000], 95, -144, 121, -3940, 1435, 16256
[0:00:35.400000], 107, -132, 127, -4006, 1708, 16454
[0:00:35.500000], 103, -121, 131, -4129, 1629, 16497
[0:00:35.600000], 79, -120, 132, -4225, 1766, 16283
[0:00:35.700000], 78, -131, 110, -3773, 1949, 16350
[0:00:35.800000], 100, -128, 111, -3968, 1662, 16249
[0:00:35.900000], 72, -146, 115, -4126, 1669, 16275
[0:00:36], 72, -122, 124, -3882, 1744, 16329
[0:00:36.100000], 90, -141, 130, -3721, 1725, 16526
[0:00:36.200000], 92, -149, 123, -3969, 1866, 16341
[0:00:36.300000], 84, -135, 124, -3945, 2064, 16239
[0:00:36.400000], 74, -142, 119, -3881, 2242, 16245
[0:00:36.500000], 91, -151, 125, -3619, 2179, 16281
[0:00:36.600000], 87, -132, 115, -3619, 2142, 16255
[0:00:36.700000], 63, -148, 131, -3703, 2315, 16476
[0:00:36.800000], 78, -148, 108, -3589, 2309, 16322
[0:00:36.900000], 66, -140, 130, -3621, 2189, 16414
[0:00:37], 58, -155, 117, -3133, 2218, 16412
[0:00:37.100000], 56, -127, 122, -3063, 2487, 16446
[0:00:37.200000], 75, -147, 131, -3000, 2222, 16445
[0:00:37.300000], 62, -134, 125, -3054, 2325, 16521
[0:00:37.400000], 62, -135, 113, -2942, 2449, 16451
[0:00:37.500000], 71, -151, 134, -3145, 2365, 16300
[0:00:37.600000], 63, -145, 129, -2878, 2410, 16499
[0:00:37.700000], 51, -144, 115, -3020, 2460, 16297
[0:00:37.800000], 66, -130, 129, -2700, 2439, 16359
[0:00:37.900000], 59, -155, 119, -2821, 2422, 16289
[0:00:38], 56, -139, 103, -2690, 2488, 16413
[0:00:38.100000], 67, -156, 123, -2918, 2549, 16470
[0:00:38.200000], 41, -138, 109, -2444, 2788, 16384
[0:00:38.300000], 63, -148, 119, -2379, 2712, 16401
[0:00:38.400000], 45, -140, 106, -2415, 2681, 16465
[0:00:38.500000], 61, -144, 126, -2567, 2867, 16369
[0:00:38.600000], 58, -153, 125, -2285, 2498, 16370
[0:00:38.700000], 55, -140, 105, -2265, 2901, 16475
[0:00:38.800000], 33, -156, 133, -2097, 2851, 16494
[0:00:38.900000], 50, -134, 132, -2073, 2621, 16452
[0:00:39], 50, -159, 120, -2314, 2967, 16328
[0:00:39.100000], 26, -133, 103, -2075, 2514, 16428
[0:00:39.200000], 52, -158, 112, -1876, 2584, 16504
[0:00:39.300000], 45, -155, 113, -1864, 2898, 16474
[0:00:39.400000], 36, -156, 111, -1849, 2582, 16397
[0:00:39.500000], 48, -157, 124, -1644, 2618, 16393
[0:00:39.600000], 20, -149, 130, -1568, 2864, 16486
[0:00:39.700000], 47, -134, 121, -1614, 2757, 16401
[0:00:39.800000], 36, -153, 107, -1546, 2902, 16502
[0:00:39.900000], 27, -156, 101, -1337, 3108, 16430
[0:00:40], 20, -162, 103, -1372, 2828, 16514
[0:00:40.100000], 18, -157, 108, -1223, 2820, 16451
[0:00:40.200000], 14, -152, 125, -1173, 3091, 16326
[0:00:40.300000], 22, -158, 115, -981, 2791, 16319
[0:00:40.400000], 34, -155, 125, -1091, 2844, 16498
[0:00:40.500000], 18, -149, 116, -1201, 2737, 16487
[0:00:40.600000], 23, -153, 105, -1049, 2852, 16417
[0:00:40.700000], 21, -149, 123, -887, 3137, 16288
[0:00:40.800000], 26, -150, 116, -597, 3022, 16487
[0:00:40.900000], 14, -150, 116, -859, 2965, 16367
[0:00:41], 26, -149, 105, -861, 2768, 16461
[0:00:41.100000], 10, -161, 113, -810, 2809, 16254
[0:00:41.200000], 5, -163, 124, -358, 3219, 16440
[0:00:41.300000], 5, -160, 104, -589, 2902, 16349
[0:00:41.400000], 3, -158, 107, -135, 2805, 16256
[0:00:41.500000], -8, -139, 106, -99, 2746, 16528
[0:00:41.600000], 18, -158, 103, -325, 3235, 16394
[0:00:41.700000], -5, -152, 120, -75, 2794, 16406
[0:00:41.800000], -11, -149, 112, -184, 3041, 16264
[0:00:41.900000], -3, -147, 126, 250, 2939, 16400
[0:00:42], 12, -147, 120, -165, 3116, 16286
[0:00:42.100000], -6, -143, 99, 206, 3110, 16417
[0:00:42.200000], 4, -135, 125, 132, 2940, 16395
[0:00:42.300000], -9, -154, 104, 364, 3011, 16291
[0:00:42.400000], 7, -145, 115, 337, 3200, 16291
[0:00:42.500000], 1, -142, 112, 450, 2743, 16260
[0:00:42.600000], -14, -152, 115, 388, 3206, 16256
[0:00:42.700000], 2, -161, 102, 714, 3010, 16339
[0:00:42.800000], -10, -146, 109, 901, 3138, 16522
[0:00:42.900000], -15, -150, 125, 858, 2840, 16470
[0:00:43], -9, -134, 101, 711, 2892, 16404
[0:00:43.100000], -23, -152, 119, 817, 3087, 16242
[0:00:43.200000], -20, -135, 114, 1050, 3140, 16354
[0:00:43.300000], -18, -135, 116, 851, 3157, 16379
[0:00:43.400000], -29, -156, 110, 1129, 2907, 16248
[0:00:43.500000], -17, -162, 98, 1031, 2855, 16377
[0:00:43.600000], -11, -138, 120, 1446, 3033, 16309
[0:00:43.700000], -28, -159, 113, 1167, 2650, 16408
[0:00:43.800000], -38, -138, 105, 1340, 3037, 16287
[0:00:43.900000], -17, -139, 96, 1689, 2847, 16427
[0:00:44], -43, -140, 118, 1369, 2771, 16386
[0:00:44.100000], -20, -139, 114, 1585, 2867, 16406
[0:00:44.200000], -30, -132, 96, 1658, 2647, 16278
[0:00:44.300000], -27, -159, 111, 1723, 2843, 16355
[0:00:44.400000], -22, -151, 121, 1782, 2782, 16438
[0:00:44.500000], -38, -149, 108, 2141, 2585, 16508
[0:00:44.600000], -28, -135, 117, 2069, 2812, 16253
[0:00:44.700000], -52, -147, 121, 2063, 2515, 16362
[0:00:44.800000], -29, -142, 113, 1865, 2776, 16495
[0:00:44.900000], -55, -132, 110, 2006, 2937, 16337
[0:00:45], -40, -146, 95, 2140, 2865, 16256
[0:00:45.100000], -43, -145, 115, 2510, 2538, 16371
[0:00:45.200000], -37, -140, 94, 2353, 2474, 16432
[0:00:45.300000], -55, -158, 99, 2665, 2395, 16491
[0:00:45.400000], -40, -133, 94, 2409, 2413, 16318
[0:00:45.500000], -42, -141, 99, 2718, 2650, 16487
[0:00:45.600000], -45, -132, 113, 2669, 2296, 16518
[0:00:45.700000], -52, -134, 96, 2521, 2436, 16345
[0:00:45.800000], -59, -151, 99, 2530, 2312, 16382
[0:00:45.900000], -60, -139, 90, 2731, 2612, 16332
[0:00:46], -73, -139, 96, 3075, 2452, 16328
[0:00:46.100000], -63, -144, 108, 2794, 2390, 16421
[0:00:46.200000], -60, -127, 104, 2970, 2232, 16323
[0:00:46.300000], -50, -128, 100, 2962, 2200, 16318
[0:00:46.400000], -78, -145, 115, 3266, 2301, 16460
[0:00:46.500000], -79, -139, 117, 3327, 2557, 16421
[0:00:46.600000], -78, -133, 114, 3168, 2333, 16418
[0:00:46.700000], -82, -148, 117, 3309, 2222, 16349
[0:00:46.800000], -64, -141, 103, 3118, 2458, 16341
[0:00:46.900000], -78, -137, 87, 3653, 2393, 16282
[0:00:47], -77, -128, 87, 3713, 2329, 16321
[0:00:47.100000], -67, -131, 116, 3384, 1965, 16509
[0:00:47.200000], -77, -137, 107, 3350, 2342, 16235
[0:00:47.300000], -85, -129, 103, 3671, 2121, 16479
[0:00:47.400000], -87, -134, 114, 3570, 1816, 16435
[0:00:47.500000], -70, -125, 113, 3950, 1757, 16283
[0:00:47.600000], -73, -132, 101, 3843, 2140, 16483
[0:00:47.700000], -75, -124, 96, 3946, 1713, 16307
[0:00:47.800000], -87, -128, 89, 3763, 1791, 16298
[0:00:47.900000], -101, -133, 95, 3797, 1927, 16342
[0:00:48], -93, -132, 101, 4179, 1921, 16238
[0:00:48.100000], -77, -128, 85, 3798, 1976, 16468
[0:00:48.200000], -82, -136, 94, 3885, 1661, 16477
[0:00:48.300000], -104, -138, 97, 4046, 1508, 16381
[0:00:48.400000], -95, -134, 92, 4053, 1928, 16302
[0:00:48.500000], -99, -140, 98, 4396, 1463, 16525
[0:00:48.600000], -105, -144, 101, 4094, 1695, 16266
[0:00:48.700000], -112, -139, 90, 4306, 1517, 16433
[0:00:48.800000], -86, -123, 108, 4296, 1439, 16524
[0:00:48.900000], -110, -121, 88, 4201, 1636, 16377
[0:00:49], -96, -116, 86, 4150, 1235, 16356
[0:00:49.100000], -113, -141, 108, 4207, 1587, 16244
[0:00:49.200000], -102, -133, 103, 4613, 1142, 16301
[0:00:49.300000], -119, -139, 82, 4680, 1286, 16398
[0:00:49.400000], -114, -132, 90, 4671, 1195, 16363
[0:00:49.500000], -105, -139, 104, 4544, 1132, 16293
[0:00:49.600000], -112, -117, 106, 4406, 1309, 16260
[0:00:49.700000], -96, -117, 86, 4478, 945, 16355
[0:00:49.800000], -112, -127, 99, 4646, 1246, 16347
[0:00:49.900000], -106, -112, 98, 4618, 1099, 16483
[0:00:50], -121, -128, 108, 4834, 888, 16452
[0:00:50.100000], -115, -122, 101, 4742, 926, 16497
[0:00:50.200000], -101, -111, 98, 4826, 880, 16374
[0:00:50.300000], -124, -118, 103, 4593, 1144, 16529
[0:00:50.400000], -131, -114, 83, 4600, 624, 16321
[0:00:50.500000], -108, -113, 80, 4655, 930, 16239
[0:00:50.600000], -128, -130, 87, 5052, 930, 16310
[0:00:50.700000], -133, -112, 81, 4686, 628, 16465
[0:00:50.800000], -130, -112, 81, 5073, 751, 16368
[0:00:50.900000], -131, -128, 83, 4664, 768, 16268
[0:00:51], -130, -130, 93, 4711, 731, 16321
[0:00:51.100000], -134, -112, 101, 4887, 518, 16452
[0:00:51.200000], -114, -122, 84, 4939, 732, 16264
[0:00:51.300000], -121, -119, 89, 5077, 653, 16461
[0:00:51.400000], -134, -100, 84, 4835, 485, 16451
[0:00:51.500000], -144, -119, 89, 4779, 453, 16315
[0:00:51.600000], -132, -99, 74, 5133, 328, 16436
[0:00:51.700000], -120, -111, 85, 5157, 433, 16381
[0:00:51.800000], -123, -117, 89, 5078, 72, 16319
[0:00:51.900000], -123, -95, 76, 5031, 375, 16374
[0:00:52], -123, -105, 92, 5153, 180, 16313
[0:00:52.100000], -152, -121, 83, 5032, 158, 16410
[0:00:52.200000], -145, -113, 75, 5100, 212, 16368
[0:00:52.300000], -132, -114, 81, 4839, -35, 16372
[0:00:52.400000], -139, -116, 97, 4980, -72, 16366
[0:00:52.500000], -135, -113, 77, 4807, -289, 16293
[0:00:52.600000], -149, -92, 81, 4827, -307, 16302
[0:00:52.700000], -139, -90, 80, 5242, -298, 16514
[0:00:52.800000], -145, -104, 77, 5153, -436, 16393
[0:00:52.900000], -153, -108, 96, 4865, -75, 16430
[0:00:53], -151, -113, 77, 5002, -288, 16334
[0:00:53.100000], -136, -89, 77, 5133, -477, 16450
[0:00:53.200000], -164, -92, 87, 4954, -265, 16237
[0:00:53.300000], -150, -102, 88, 4861, -262, 16422
[0:00:53.400000], -149, -86, 87, 4985, -666, 16516
[0:00:53.500000], -150, -88, 78, 5059, -716, 16309
[0:00:53.600000], -146, -109, 94, 4682, -447, 16318
[0:00:53.700000], -164, -88, 81, 4649, -556, 16248
[0:00:53.800000], -163, -107, 80, 5119, -857, 16387
[0:00:53.900000], -148, -88, 64, 4941, -884, 16271
[0:00:54], -162, -93, 90, 4769, -858, 16450
[0:00:54.100000], -151, -78, 86, 4814, -615, 16465
[0:00:54.200000], -161, -78, 84, 4855, -909, 16346
[0:00:54.300000], -168, -90, 90, 4618, -1037, 16510
[0:00:54.400000], -174, -91, 64, 4999, -1002, 16469
[0:00:54.500000], -160, -81, 61, 4842, -1166, 16250
[0:00:54.600000], -161, -94, 69, 4472, -1134, 16479
[0:00:54.700000], -164, -75, 77, 4545, -1070, 16294
[0:00:54.800000], -158, -98, 60, 4823, -1135, 16452
[0:00:54.900000], -152, -70, 68, 4457, -1260, 16425
[0:00:55], -152, -88, 79, 4776, -917, 16428
[0:00:55.100000], -167, -74, 75, 4541, -1271, 16280
[0:00:55.200000], -172, -93, 74, 4573, -1227, 16302
[0:00:55.300000], -165, -77, 63, 4768, -1253, 16425
[0:00:55.400000], -167, -91, 58, 4428, -1319, 16344
[0:00:55.500000], -165, -63, 72, 4528, -1552, 16481
[0:00:55.600000], -169, -86, 83, 4425, -1565, 16495
[0:00:55.700000], -164, -79, 67, 4560, -1207, 16283
[0:00:55.800000], -181, -74, 80, 4187, -1239, 16423
[0:00:55.900000], -167, -80, 69, 4302, -1320, 16449
[0:00:56], -174, -61, 69, 4173, -1727, 16248
[0:00:56.100000], -171, -72, 73, 4315, -1391, 16372
[0:00:56.200000], -180, -60, 82, 4126, -1706, 16524
[0:00:56.300000], -171, -70, 68, 3921, -1712, 16420
[0:00:56.400000], -176, -62, 67, 4205, -1467, 16440
[0:00:56.500000], -182, -67, 72, 3816, -1966, 16532
[0:00:56.600000], -186, -78, 70, 4155, -1706, 16401
[0:00:56.700000], -180, -63, 51, 4007, -1819, 16421
[0:00:56.800000], -172, -57, 81, 4020, -1632, 16392
[0:00:56.900000], -185, -66, 73, 4074, -2138, 16440
[0:00:57], -170, -73, 66, 4008, -1792, 16406
[0:00:57.100000], -170, -77, 69, 3644, -2189, 16516
[0:00:57.200000], -170, -57, 60, 3634, -1839, 16460
[0:00:57.300000], -197, -64, 51, 3589, -1799, 16357
[0:00:57.400000], -170, -73, 60, 3664, -2105, 16350
[0:00:57.500000], -183, -61, 77, 3482, -2306, 16414
[0:00:57.600000], -175, -57, 69, 3429, -1978, 16244
[0:00:57.700000], -192, -59, 61, 3291, -2344, 16271
[0:00:57.800000], -179, -44, 71, 3370, -2010, 16444
[0:00:57.900000], -197, -41, 74, 3322, -2287, 16522
[0:00:58], -196, -51, 72, 3334, -2362, 16244
[0:00:58.100000], -181, -45, 56, 3490, -2515, 16395
[0:00:58.200000], -193, -41, 61, 2994, -2056, 16438
[0:00:58.300000], -176, -64, 69, 3127, -2256, 16322
[0:00:58.400000], -197, -52, 67, 2987, -2134, 16368
[0:00:58.500000], -177, -59, 62, 3092, -2218, 16349
[0:00:58.600000], -203, -33, 68, 2861, -2385, 16325
[0:00:58.700000], -205, -38, 72, 2914, -2360, 16405
[0:00:58.800000], -176, -35, 67, 2732, -2648, 16431
[0:00:58.900000], -197, -53, 70, 2605, -2278, 16250
[0:00:59], -185, -49, 64, 2623, -2500, 16286
[0:00:59.100000], -183, -36, 53, 2464, -2785, 16374
[0:00:59.200000], -187, -53, 57, 2719, -2798, 16279
[0:00:59.300000], -203, -34, 66, 2643, -2475, 16377
[0:00:59.400000], -193, -41, 48, 2354, -2709, 16303
[0:00:59.500000], -182, -32, 61, 2412, -2410, 16478
[0:00:59.600000], -183, -31, 47, 2100, -2518, 16393
[0:00:59.700000], -194, -41, 65, 2448, -2680, 16500
[0:00:59.800000], -201, -32, 53, 2187, -2742, 16330
[0:00:59.900000], -184, -32, 64, 2147, -2873, 16373
[0:01:00], 69, 131, -93, 2779, 2447, 16238
[0:01:00.100000], 54, 129, -86, 3129, 2578, 16321
[0:01:00.200000], 77, 138, -73, 3333, 2264, 16446
[0:01:00.300000], 83, 151, -75, 3286, 2467, 16281
[0:01:00.400000], 66, 132, -78, 3242, 2385, 16239
[0:01:00.500000], 71, 135, -77, 3425, 2278, 16390
[0:01:00.600000], 74, 128, -87, 3330, 2253, 16514
[0:01:00.700000], 88, 137, -90, 3769, 1956, 16349
[0:01:00.800000], 72, 131, -100, 3469, 2267, 16268
[0:01:00.900000], 78, 134, -102, 3927, 2134, 16485
[0:01:01], 82, 123, -90, 3865, 2172, 16467
[0:01:01.100000], 99, 147, -107, 3951, 1853, 16507
[0:01:01.200000], 81, 136, -87, 3951, 1827, 16266
[0:01:01.300000], 96, 127, -81, 4100, 1576, 16350
[0:01:01.400000], 95, 121, -85, 4205, 1748, 16421
[0:01:01.500000], 92, 118, -89, 4053, 1641, 16507
[0:01:01.600000], 104, 120, -84, 4063, 1818, 16464
[0:01:01.700000], 82, 122, -104, 4423, 1678, 16263
[0:01:01.800000], 85, 123, -106, 4149, 1753, 16449
[0:01:01.900000], 111, 144, -105, 4164, 1295, 16325
[0:01:02], 108, 133, -111, 4187, 1617, 16451
[0:01:02.100000], 106, 137, -107, 4389, 1306, 16302
[0:01:02.200000], 100, 115, -107, 4630, 1211, 16444
[0:01:02.300000], 114, 126, -84, 4678, 1270, 16339
[0:01:02.400000], 98, 137, -102, 4639, 1253, 16314
[0:01:02.500000], 125, 120, -107, 4425, 1136, 16254
[0:01:02.600000], 107, 122, -113, 4596, 851, 16274
[0:01:02.700000], 101, 110, -94, 4535, 959, 16461
[0:01:02.800000], 107, 113, -106, 4766, 844, 16340
[0:01:02.900000], 106, 130, -116, 4935, 866, 16427
[0:01:03], 128, 132, -89, 4880, 771, 16403
[0:01:03.100000], 125, 122, -101, 5028, 772, 16424
[0:01:03.200000], 122, 127, -88, 4647, 727, 16462
[0:01:03.300000], 132, 111, -107, 4785, 785, 16357
[0:01:03.400000], 129, 110, -98, 4743, 506, 16450
[0:01:03.500000], 131, 106, -97, 4933, 425, 16446
[0:01:03.600000], 137, 112, -103, 4751, 655, 16399
[0:01:03.700000], 117, 114, -96, 4896, 232, 16487
[0:01:03.800000], 148, 126, -100, 4982, 165, 16362
[0:01:03.900000], 133, 95, -106, 5054, 394, 16243
[0:01:04], 132, 99, -101, 5200, 65, 16444
[0:01:04.100000], 153, 108, -106, 5000, 343, 16504
[0:01:04.200000], 142, 112, -103, 5129, 83, 16336
[0:01:04.300000], 157, 112, -108, 5107, -91, 16521
[0:01:04.400000], 154, 93, -96, 5001, -335, 16419
[0:01:04.500000], 145, 117, -114, 5132, -278, 16378
[0:01:04.600000], 132, 115, -101, 5168, -307, 16497
[0:01:04.700000], 152, 107, -93, 5066, -99, 16485
[0:01:04.800000], 137, 99, -108, 4967, -281, 16445
[0:01:04.900000], 164, 96, -124, 5098, -505, 16366
[0:01:05], 145, 92, -113, 5079, -592, 16250
[0:01:05.100000], 147, 108, -116, 4873, -570, 16357
[0:01:05.200000], 152, 79, -104, 4703, -728, 16472
[0:01:05.300000], 147, 87, -95, 4756, -822, 16263
[0:01:05.400000], 168, 80, -107, 4772, -537, 16311
[0:01:05.500000], 170, 87, -102, 4760, -1023, 16290
[0:01:05.600000], 164, 74, -101, 4586, -1040, 16497
[0:01:05.700000], 160, 99, -98, 4671, -1057, 16332
[0:01:05.800000], 167, 83, -115, 4495, -847, 16492
[0:01:05.900000], 165, 95, -125, 4582, -1082, 16239
[0:01:06], 177, 74, -108, 4789, -1214, 16418
[0:01:06.100000], 155, 96, -99, 4658, -1349, 16380
[0:01:06.200000], 173, 79, -127, 4471, -1457, 16358
[0:01:06.300000], 173, 93, -99, 4298, -1479, 16495
[0:01:06.400000], 166, 78, -105, 4391, -1502, 16522
[0:01:06.500000], 183, 82, -116, 4490, -1457, 16448
[0:01:06.600000], 185, 74, -129, 4328, -1243, 16453
[0:01:06.700000], 181, 74, -112, 4224, -1402, 16420
[0:01:06.800000], 171, 68, -106, 4139, -1679, 16474
[0:01:06.900000], 165, 83, -108, 4087, -1895, 16369
[0:01:07], 180, 75, -107, 3980, -1812, 16400
[0:01:07.100000], 167, 70, -123, 3899, -1945, 16287
[0:01:07.200000], 186, 65, -121, 4216, -2037, 16285
[0:01:07.300000], 174, 68, -117, 3760, -1796, 16436
[0:01:07.400000], 171, 66, -110, 3824, -2063, 16340
[0:01:07.500000], 194, 51, -128, 3908, -1927, 16472
[0:01:07.600000], 182, 64, -124, 3486, -2006, 16424
[0:01:07.700000], 175, 68, -111, 3793, -2080, 16363
[0:01:07.800000], 177, 50, -129, 3629, -2290, 16371
[0:01:07.900000], 179, 64, -129, 3535, -2056, 16359
[0:01:08], 182, 49, -107, 3504, -2256, 16278
[0:01:08.100000], 172, 61, -109, 3450, -2020, 16501
[0:01:08.200000], 191, 48, -108, 3087, -2535, 16273
[0:01:08.300000], 201, 43, -106, 2997, -2367, 16390
[0:01:08.400000], 179, 48, -125, 3178, -2298, 16471
[0:01:08.500000], 179, 53, -106, 2742, -2543, 16317
[0:01:08.600000], 179, 32, -113, 3009, -2673, 16307
[0:01:08.700000], 200, 50, -126, 2635, -2479, 16352
[0:01:08.800000], 177, 52, -128, 2952, -2363, 16240
[0:01:08.900000], 205, 52, -128, 2608, -2759, 16284
[0:01:09], 200, 36, -120, 2473, -2435, 16334
[0:01:09.100000], 200, 46, -132, 2619, -2549, 16402
[0:01:09.200000], 181, 36, -121, 2335, -2541, 16524
[0:01:09.300000], 187, 41, -131, 2379, -2921, 16331
[0:01:09.400000], 195, 38, -110, 2023, -2659, 16496
[0:01:09.500000], 195, 36, -123, 2124, -2646, 16288
[0:01:09.600000], 200, 18, -106, 1701, -3008, 16304
[0:01:09.700000], 189, 40, -133, 1704, -2612, 16476
[0:01:09.800000], 198, 39, -118, 1675, -2883, 16458
[0:01:09.900000], 192, 22, -128, 1780, -2752, 16253
[0:01:10], 205, 31, -125, 1657, -2674, 16461
[0:01:10.100000], 211, 12, -110, 1331, -2782, 16251
[0:01:10.200000], 204, 34, -116, 1324, -2995, 16499
[0:01:10.300000], 213, 16, -126, 1439, -3017, 16331
[0:01:10.400000], 183, 9, -115, 1142, -2757, 16525
[0:01:10.500000], 209, 2, -108, 1081, -2913, 16247
[0:01:10.600000], 195, 0, -132, 1019, -3058, 16260
[0:01:10.700000], 212, 17, -110, 572, -2930, 16312
[0:01:10.800000], 200, 0, -110, 449, -3154, 16366
[0:01:10.900000], 205, 7, -118, 633, -2989, 16484
[0:01:11], 187, 14, -113, 331, -3175, 16369
[0:01:11.100000], 193, 16, -134, 385, -3107, 16423
[0:01:11.200000], 199, 16, -112, 70, -3072, 16525
[0:01:11.300000], 206, 11, -118, 63, -2878, 16334
[0:01:11.400000], 200, -14, -130, -9, -3041, 16473
[0:01:11.500000], 214, -6, -132, -51, -3226, 16426
[0:01:11.600000], 209, -2, -108, -333, -2901, 16314
[0:01:11.700000], 191, -19, -119, -249, -2750, 16389
[0:01:11.800000], 196, -3, -121, -640, -2826, 16296
[0:01:11.900000], 210, -11, -112, -387, -2776, 16534
[0:01:12], 213, 5, -124, -758, -2832, 16393
[0:01:12.100000], 196, -20, -117, -893, -2769, 16459
[0:01:12.200000], 188, -28, -132, -635, -3161, 16512
[0:01:12.300000], 205, -2, -131, -1061, -2858, 16324
[0:01:12.400000], 191, -5, -110, -1191, -2776, 16408
[0:01:12.500000], 194, -26, -108, -1265, -2923, 16243
[0:01:12.600000], 204, -14, -106, -1401, -2828, 16472
[0:01:12.700000], 183, -23, -114, -1463, -2890, 16521
[0:01:12.800000], 209, -19, -111, -1327, -2677, 16285
[0:01:12.900000], 209, -34, -105, -1768, -2871, 16294
[0:01:13], 202, -41, -134, -1700, -2836, 16435
[0:01:13.100000], 196, -31, -134, -1651, -2866, 16287
[0:01:13.200000], 207, -40, -133, -2166, -2549, 16326
[0:01:13.300000], 190, -41, -130, -1791, -2556, 16295
[0:01:13.400000], 187, -17, -130, -2154, -2765, 16508
[0:01:13.500000], 207, -26, -112, -2102, -2733, 16236
[0:01:13.600000], 182, -34, -130, -2412, -2490, 16432
[0:01:13.700000], 198, -35, -107, -2511, -2804, 16334
[0:01:13.800000], 192, -35, -111, -2338, -2705, 16289
[0:01:13.900000], 179, -45, -122, -2837, -2531, 16374
[0:01:14], 206, -40, -111, -2840, -2685, 16338
[0:01:14.100000], 194, -37, -107, -2794, -2359, 16373
[0:01:14.200000], 181, -59, -132, -2970, -2683, 16257
[0:01:14.300000], 178, -59, -125, -2763, -2372, 16356
[0:01:14.400000], 176, -55, -122, -3093, -2594, 16248
[0:01:14.500000], 187, -61, -106, -3310, -2238, 16248
[0:01:14.600000], 194, -52, -108, -3277, -2134, 16349
[0:01:14.700000], 198, -43, -104, -3212, -2372, 16284
[0:01:14.800000], 201, -56, -111, -3335, -2248, 16451
[0:01:14.900000], 179, -59, -112, -3541, -2057, 16423
[0:01:15], 197, -49, -125, -3700, -2314, 16237
[0:01:15.100000], 189, -68, -123, -3624, -2030, 16450
[0:01:15.200000], 185, -55, -126, -3724, -2192, 16460
[0:01:15.300000], 183, -70, -102, -3539, -2179, 16368
[0:01:15.400000], 165, -67, -113, -3606, -1688, 16520
[0:01:15.500000], 170, -53, -118, -3947, -1774, 16409
[0:01:15.600000], 176, -75, -106, -3868, -1778, 16506
[0:01:15.700000], 176, -81, -122, -4025, -1840, 16383
[0:01:15.800000], 168, -73, -113, -3980, -1720, 16319
[0:01:15.900000], 164, -57, -119, -3961, -1841, 16427
[0:01:16], 189, -87, -106, -4378, -1658, 16246
[0:01:16.100000], 171, -69, -118, -4409, -1576, 16389
[0:01:16.200000], 183, -79, -116, -4583, -1446, 16391
[0:01:16.300000], 164, -67, -116, -4617, -1499, 16476
[0:01:16.400000], 175, -87, -104, -4699, -1439, 16304
[0:01:16.500000], 166, -64, -120, -4301, -1182, 16441
[0:01:16.600000], 154, -75, -105, -4549, -1256, 16351
[0:01:16.700000], 174, -79, -122, -4806, -1388, 16433
[0:01:16.800000], 157, -69, -108, -4640, -1148, 16240
[0:01:16.900000], 178, -84, -117, -4632, -917, 16355
[0:01:17], 157, -75, -99, -4682, -1173, 16268
[0:01:17.100000], 167, -74, -102, -4771, -708, 16383
[0:01:17.200000], 171, -87, -122, -4564, -779, 16316
[0:01:17.300000], 156, -99, -125, -4864, -952, 16508
[0:01:17.400000], 149, -99, -97, -4630, -719, 16277
[0:01:17.500000], 159, -87, -113, -4760, -492, 16263
[0:01:17.600000], 147, -109, -97, -4737, -625, 16456
[0:01:17.700000], 165, -92, -115, -4924, -315, 16245
[0:01:17.800000], 150, -106, -123, -4712, -298, 16339
[0:01:17.900000], 148, -113, -110, -4862, -188, 16496
[0:01:18], 158, -100, -105, -4870, -376, 16506
[0:01:18.100000], 151, -101, -102, -5000, -250, 16353
[0:01:18.200000], 133, -100, -96, -5141, -270, 16341
[0:01:18.300000], 160, -113, -98, -4961, -117, 16354
[0:01:18.400000], 136, -98, -114, -4829, 48, 16308
[0:01:18.500000], 150, -103, -101, -5092, -149, 16355
[0:01:18.600000], 132, -108, -102, -4837, -61, 16395
[0:01:18.700000], 136, -99, -91, -5160, -110, 16396
[0:01:18.800000], 133, -98, -101, -5137, 384, 16497
[0:01:18.900000], 137, -109, -93, -4759, 418, 16287
[0:01:19], 122, -113, -106, -5127, 159, 16254
[0:01:19.100000], 142, -118, -104, -5021, 353, 16347
[0:01:19.200000], 130, -108, -111, -5119, 396, 16334
[0:01:19.300000], 135, -110, -110, -5162, 487, 16440
[0:01:19.400000], 118, -108, -93, -4698, 570, 16392
[0:01:19.500000], 137, -105, -101, -5065, 398, 16372
[0:01:19.600000], 118, -116, -100, -4986, 750, 16398
[0:01:19.700000], 135, -107, -95, -4695, 517, 16529
[0:01:19.800000], 128, -110, -116, -5000, 790, 16534
[0:01:19.900000], 131, -117, -99, -4761, 837, 16287
[0:01:20], 128, -110, -101, -4781, 994, 16517
[0:01:20.100000], 119, -109, -106, -4571, 1193, 16511
[0:01:20.200000], 109, -137, -103, -4530, 1112, 16272
[0:01:20.300000], 120, -115, -98, -4643, 1303, 16256
[0:01:20.400000], 96, -129, -103, -4445, 1332, 16528
[0:01:20.500000], 93, -129, -92, -4331, 1118, 16460
[0:01:20.600000], 103, -130, -85, -4517, 1119, 16359
[0:01:20.700000], 93, -114, -107, -4592, 1390, 16364
[0:01:20.800000], 95, -123, -104, -4326, 1562, 16366
[0:01:20.900000], 114, -130, -95, -4550, 1663, 16254
[0:01:21], 108, -134, -106, -4323, 1782, 16509
[0:01:21.100000], 91, -126, -106, -4218, 1811, 16390
[0:01:21.200000], 79, -145, -101, -4117, 1600, 16487
[0:01:21.300000], 105, -128, -97, -4288, 1922, 16352
[0:01:21.400000], 96, -143, -81, -4043, 1544, 16444
[0:01:21.500000], 74, -133, -83, -3786, 1808, 16259
[0:01:21.600000], 73, -142, -79, -3758, 2009, 16501
[0:01:21.700000], 73, -135, -80, -4080, 1897, 16265
[0:01:21.800000], 72, -139, -81, -3983, 1729, 16456
[0:01:21.900000], 84, -135, -100, -3910, 1967, 16377
[0:01:22], 91, -148, -82, -3842, 2294, 16238
[0:01:22.100000], 70, -129, -88, -3473, 2286, 16331
[0:01:22.200000], 60, -150, -103, -3700, 2003, 16271
[0:01:22.300000], 83, -143, -81, -3592, 2133, 16443
[0:01:22.400000], 78, -129, -82, -3115, 2347, 16406
[0:01:22.500000], 60, -146, -75, -3216, 2212, 16444
[0:01:22.600000], 79, -145, -103, -2933, 2395, 16365
[0:01:22.700000], 55, -149, -90, -2838, 2210, 16260
[0:01:22.800000], 60, -128, -100, -3008, 2602, 16416
[0:01:22.900000], 61, -128, -101, -2662, 2617, 16338
[0:01:23], 65, -128, -82, -2529, 2466, 16351
[0:01:23.100000], 68, -135, -84, -2525, 2302, 16534
[0:01:23.200000], 54, -131, -77, -2553, 2655, 16464
[0:01:23.300000], 56, -155, -93, -2341, 2756, 16364
[0:01:23.400000], 55, -134, -94, -2214, 2801, 16286
[0:01:23.500000], 50, -142, -87, -2092, 2891, 16317
[0:01:23.600000], 51, -131, -81, -2166, 2577, 16271
[0:01:23.700000], 49, -150, -75, -2232, 2475, 16528
[0:01:23.800000], 41, -157, -86, -1907, 2976, 16289
[0:01:23.900000], 46, -145, -68, -1684, 3021, 16353
[0:01:24], 30, -159, -87, -1936, 2891, 16325
[0:01:24.100000], 26, -148, -77, -1619, 2657, 16431
[0:01:24.200000], 47, -162, -89, -1388, 2767, 16240
[0:01:24.300000], 28, -141, -73, -1343, 2673, 16370
[0:01:24.400000], 28, -140, -78, -1501, 3039, 16248
[0:01:24.500000], 12, -136, -69, -1390, 2897, 16417
[0:01:24.600000], 23, -160, -73, -1398, 2835, 16471
[0:01:24.700000], 21, -162, -76, -1083, 2911, 16379
[0:01:24.800000], 20, -141, -83, -831, 2825, 16259
[0:01:24.900000], 23, -137, -71, -696, 3058, 16320
[0:01:25], 27, -143, -85, -956, 2747, 16510
[0:01:25.100000], 17, -143, -83, -860, 3085, 16312
[0:01:25.200000], 17, -149, -73, -750, 3128, 16479
[0:01:25.300000], -2, -134, -59, -667, 3145, 16532
[0:01:25.400000], 8, -141, -79, -456, 2968, 16449
[0:01:25.500000], -6, -158, -77, -193, 2921, 16493
[0:01:25.600000], 5, -144, -72, -226, 3217, 16307
[0:01:25.700000], -10, -151, -73, -203, 3239, 16267
[0:01:25.800000], 0, -161, -63, 374, 3179, 16518
[0:01:25.900000], -8, -151, -80, 14, 3141, 16499
[0:01:26], -20, -163, -55, 133, 3231, 16336
[0:01:26.100000], -1, -159, -56, 456, 3000, 16349
[0:01:26.200000], 3, -140, -82, 493, 2812, 16380
[0:01:26.300000], -4, -159, -65, 453, 2956, 16393
[0:01:26.400000], -3, -147, -54, 645, 2841, 16323
[0:01:26.500000], -6, -155, -55, 1119, 3122, 16413
[0:01:26.600000], -29, -164, -60, 1055, 2778, 16519
[0:01:26.700000], -21, -142, -63, 1247, 2985, 16379
[0:01:26.800000], -32, -134, -58, 1092, 2764, 16362
[0:01:26.900000], -24, -159, -66, 1221, 2685, 16325
[0:01:27], -25, -146, -68, 1397, 2910, 16444
[0:01:27.100000], -31, -148, -62, 1572, 2815, 16375
[0:01:27.200000], -30, -133, -62, 1550, 2708, 16260
[0:01:27.300000], -22, -158, -47, 1969, 2676, 16437
[0:01:27.400000], -39, -152, -62, 1674, 2807, 16291
[0:01:27.500000], -48, -138, -73, 2066, 2956, 16409
[0:01:27.600000], -28, -152, -67, 2197, 2488, 16259
[0:01:27.700000], -51, -155, -61, 1965, 2496, 16246
[0:01:27.800000], -56, -158, -56, 2453, 2692, 16533
[0:01:27.900000], -52, -148, -53, 2289, 2892, 16329
[0:01:28], -43, -149, -63, 2644, 2534, 16259
[0:01:28.100000], -57, -143, -58, 2730, 2831, 16261
[0:01:28.200000], -64, -141, -48, 2507, 2704, 16350
[0:01:28.300000], -55, -157, -67, 2665, 2396, 16528
[0:01:28.400000], -55, -141, -63, 2920, 2569, 16317
[0:01:28.500000], -72, -136, -45, 2973, 2199, 16252
[0:01:28.600000], -71, -144, -36, 2980, 2545, 16474
[0:01:28.700000], -52, -133, -58, 3056, 2238, 16286
[0:01:28.800000], -52, -136, -60, 3374, 2451, 16386
[0:01:28.900000], -69, -144, -50, 3402, 2433, 16430
[0:01:29], -74, -135, -56, 3457, 2061, 16271
[0:01:29.100000], -64, -137, -54, 3654, 2029, 16471
[0:01:29.200000], -85, -148, -51, 3427, 2058, 16379
[0:01:29.300000], -62, -150, -60, 3602, 2298, 16454
[0:01:29.400000], -79, -124, -56, 3524, 1992, 16524
[0:01:29.500000], -77, -127, -38, 3947, 1952, 16421
[0:01:29.600000], -91, -121, -56, 3898, 2156, 16457
[0:01:29.700000], -90, -132, -33, 3793, 1901, 16363
[0:01:29.800000], -95, -125, -55, 4010, 2092, 16239
[0:01:29.900000], -86, -130, -42, 4020, 1684, 16413
[0:01:30], -82, -143, -41, 3889, 1956, 16330
[0:01:30.100000], -89, -128, -45, 3959, 1655, 16386
[0:01:30.200000], -85, -143, -37, 4291, 1812, 16330
[0:01:30.300000], -85, -131, -31, 4160, 1393, 16324
[0:01:30.400000], -110, -139, -43, 4090, 1446, 16462
[0:01:30.500000], -86, -137, -32, 4259, 1547, 16402
[0:01:30.600000], -109, -140, -45, 4283, 1413, 16254
[0:01:30.700000], -91, -123, -30, 4505, 1154, 16498
[0:01:30.800000], -120, -119, -39, 4401, 1039, 16416
[0:01:30.900000], -116, -117, -24, 4715, 1243, 16368
[0:01:31], -96, -126, -24, 4480, 1169, 16323
[0:01:31.100000], -119, -123, -24, 4554, 881, 16524
[0:01:31.200000], -128, -130, -44, 4453, 849, 16502
[0:01:31.300000], -109, -130, -15, 4967, 1224, 16271
[0:01:31.400000], -126, -128, -14, 4705, 746, 16467
[0:01:31.500000], -123, -126, -40, 4560, 1035, 16440
[0:01:31.600000], -112, -114, -31, 4879, 660, 16484
[0:01:31.700000], -107, -125, -24, 4617, 883, 16237
[0:01:31.800000], -116, -109, -41, 4701, 596, 16320
[0:01:31.900000], -131, -115, -23, 4920, 741, 16252
[0:01:32], -117, -117, -15, 4804, 507, 16256
[0:01:32.100000], -131, -112, -32, 4940, 581, 16348
[0:01:32.200000], -130, -118, -17, 4728, 220, 16434
[0:01:32.300000], -122, -106, -22, 5051, 136, 16404
[0:01:32.400000], -125, -124, -32, 5091, 483, 16381
[0:01:32.500000], -124, -100, -29, 5191, 124, 16363
[0:01:32.600000], -137, -93, -6, 4873, 95, 16494
[0:01:32.700000], -135, -95, -34, 4967, 315, 16345
[0:01:32.800000], -150, -95, -12, 5175, -53, 16361
[0:01:32.900000], -137, -108, -29, 4972, 185, 16477
[0:01:33], -150, -116, -20, 5063, -246, 16264
[0:01:33.100000], -160, -116, -27, 4767, -204, 16379
[0:01:33.200000], -155, -101, -20, 4924, -172, 16503
[0:01:33.300000], -163, -86, -30, 4900, -370, 16463
[0:01:33.400000], -164, -114, -27, 4932, -582, 16397
[0:01:33.500000], -154, -90, -17, 4769, -547, 16524
[0:01:33.600000], -159, -103, -16, 4759, -392, 16449
[0:01:33.700000], -166, -87, -8, 5086, -744, 16487
[0:01:33.800000], -156, -98, -24, 4955, -666, 16352
[0:01:33.900000], -151, -99, -9, 5007, -883, 16300
[0:01:34], -146, -97, 0, 5035, -733, 16484
[0:01:34.100000], -145, -79, 3, 4763, -669, 16453
[0:01:34.200000], -147, -87, -15, 4908, -662, 16293
[0:01:34.300000], -173, -76, 1, 4894, -1103, 16332
[0:01:34.400000], -170, -90, -17, 4506, -886, 16255
[0:01:34.500000], -175, -83, 0, 4532, -1094, 16296
[0:01:34.600000], -157, -71, -4, 4457, -1351, 16306
[0:01:34.700000], -177, -78, -8, 4435, -1286, 16494
[0:01:34.800000], -153, -68, -10, 4406, -1431, 16533
[0:01:34.900000], -155, -70, -1, 4445, -1302, 16236
[0:01:35], -174, -83, 12, 4659, -1230, 16239
[0:01:35.100000], -182, -79, 3, 4463, -1578, 16362
[0:01:35.200000], -187, -62, 9, 4299, -1542, 16241
[0:01:35.300000], -162, -88, -12, 4226, -1452, 16370
[0:01:35.400000], -188, -76, 3, 3990, -1497, 16500
[0:01:35.500000], -181, -73, -3, 4179, -1439, 16514
[0:01:35.600000], -166, -83, -11, 4192, -1581, 16465
[0:01:35.700000], -179, -55, 7, 4206, -1995, 16332
[0:01:35.800000], -176, -76, 2, 4038, -2055, 16483
[0:01:35.900000], -185, -55, 7, 3886, -1692, 16342
[0:01:36], -190, -50, -2, 3633, -1858, 16518
[0:01:36.100000], -172, -51, 16, 3878, -2205, 16416
[0:01:36.200000], -176, -58, 14, 3790, -1999, 16485
[0:01:36.300000], -195, -67, 1, 3550, -1837, 16311
[0:01:36.400000], -197, -69, 6, 3714, -2284, 16295
[0:01:36.500000], -174, -52, 9, 3490, -2222, 16430
[0:01:36.600000], -182, -51, 16, 3298, -2037, 16519
[0:01:36.700000], -190, -61, 1, 3474, -2346, 16277
[0:01:36.800000], -203, -38, 16, 3188, -2480, 16256
[0:01:36.900000], -184, -40, 9, 2910, -2541, 16257
[0:01:37], -199, -58, 14, 3271, -2460, 16287
[0:01:37.100000], -183, -32, 6, 3095, -2644, 16382
[0:01:37.200000], -183, -56, 11, 2973, -2402, 16383
[0:01:37.300000], -180, -39, 26, 2515, -2675, 16356
[0:01:37.400000], -185, -43, 29, 2453, -2658, 16431
[0:01:37.500000], -182, -27, 16, 2393, -2370, 16292
[0:01:37.600000], -192, -44, 11, 2348, -2708, 16376
[0:01:37.700000], -206, -47, 34, 2495, -2515, 16523
[0:01:37.800000], -187, -33, 29, 2224, -2750, 16251
[0:01:37.900000], -209, -21, 31, 2167, -2488, 16372
[0:01:38], -184, -21, 29, 2338, -2876, 16276
[0:01:38.100000], -189, -33, 22, 2194, -2972, 16301
[0:01:38.200000], -203, -14, 24, 2014, -2920, 16319
[0:01:38.300000], -193, -25, 12, 2026, -2684, 16341
[0:01:38.400000], -194, -34, 38, 1872, -2999, 16506
[0:01:38.500000], -203, -12, 11, 1686, -3045, 16359
[0:01:38.600000], -208, -10, 29, 1576, -2635, 16530
[0:01:38.700000], -188, -35, 13, 1206, -2638, 16434
[0:01:38.800000], -199, -26, 27, 1397, -2937, 16467
[0:01:38.900000], -197, -19, 16, 1400, -2707, 16435
[0:01:39], -212, -23, 24, 821, -3037, 16445
[0:01:39.100000], -188, -5, 18, 1138, -3107, 16253
[0:01:39.200000], -203, -1, 32, 613, -3200, 16494
[0:01:39.300000], -193, -23, 27, 770, -3074, 16332
[0:01:39.400000], -205, -1, 24, 370, -3133, 16534
[0:01:39.500000], -189, 4, 31, 264, -2955, 16498
[0:01:39.600000], -212, -6, 23, 479, -3072, 16308
[0:01:39.700000], -191, -9, 27, 218, -3199, 16488
[0:01:39.800000], -194, 10, 43, 47, -3093, 16384
[0:01:39.900000], -187, 0, 49, 184, -2937, 16256
[0:01:40], -187, 9, 43, -105, -2882, 16523
[0:01:40.100000], -213, 3, 36, 30, -2873, 16330
[0:01:40.200000], -201, 1, 24, -47, -2817, 16421
[0:01:40.300000], -188, 18, 28, -384, -2749, 16351
[0:01:40.400000], -191, 3, 39, -391, -2852, 16430
[0:01:40.500000], -204, 22, 26, -527, -2968, 16399
[0:01:40.600000], -194, 4, 30, -898, -2830, 16311
[0:01:40.700000], -192, 1, 41, -891, -3161, 16339
[0:01:40.800000], -208, 11, 50, -1116, -2865, 16323
[0:01:40.900000], -209, 21, 31, -958, -2884, 16392
[0:01:41], -208, 2, 41, -1193, -2914, 16401
[0:01:41.100000], -201, 24, 55, -1168, -2689, 16318
[0:01:41.200000], -206, 11, 54, -1524, -3031, 16438
[0:01:41.300000], -199, 23, 52, -1225, -2860, 16280
[0:01:41.400000], -197, 9, 48, -1537, -2990, 16333
[0:01:41.500000], -197, 12, 45, -1577, -3000, 16293
[0:01:41.600000], -207, 38, 46, -1721, -2897, 16313
[0:01:41.700000], -207, 19, 34, -1841, -2851, 16274
[0:01:41.800000], -195, 16, 50, -2005, -2758, 16327
[0:01:41.900000], -209, 31, 45, -1902, -2958, 16521
[0:01:42], -192, 19, 44, -2025, -2605, 16280
[0:01:42.100000], -201, 33, 67, -2440, -2679, 16430
[0:01:42.200000], -194, 44, 38, -2456, -2836, 16398
[0:01:42.300000], -192, 30, 50, -2616, -2790, 16408
[0:01:42.400000], -179, 49, 66, -2637, -2787, 16323
[0:01:42.500000], -186, 46, 62, -2657, -2781, 16264
[0:01:42.600000], -186, 48, 57, -2938, -2338, 16527
[0:01:42.700000], -179, 32, 53, -2684, -2548, 16427
[0:01:42.800000], -180, 49, 69, -3137, -2195, 16301
[0:01:42.900000], -191, 48, 73, -2918, -2509, 16388
[0:01:43], -198, 53, 49, -2851, -2593, 16256
[0:01:43.100000], -176, 54, 72, -3098, -2127, 16416
[0:01:43.200000], -191, 43, 74, -3505, -2163, 16243
[0:01:43.300000], -171, 57, 49, -3295, -2107, 16247
[0:01:43.400000], -186, 49, 76, -3531, -2084, 16461
[0:01:43.500000], -188, 48, 48, -3608, -2158, 16467
[0:01:43.600000], -173, 59, 73, -3779, -1865, 16434
[0:01:43.700000], -192, 68, 72, -3656, -1922, 16439
[0:01:43.800000], -194, 48, 79, -3568, -1909, 16265
[0:01:43.900000], -187, 59, 72, -3734, -1780, 16397
[0:01:44], -182, 55, 50, -3828, -2019, 16493
[0:01:44.100000], -174, 79, 57, -3892, -1662, 16522
[0:01:44.200000], -183, 71, 71, -3995, -2004, 16429
[0:01:44.300000], -180, 80, 64, -4030, -1747, 16458
[0:01:44.400000], -185, 61, 64, -4217, -1453, 16411
[0:01:44.500000], -177, 79, 61, -4041, -1858, 16411
[0:01:44.600000], -169, 87, 82, -4161, -1410, 16335
[0:01:44.700000], -180, 89, 62, -4278, -1308, 16436
[0:01:44.800000], -176, 79, 58, -4579, -1250, 16357
[0:01:44.900000], -181, 90, 63, -4359, -1366, 16252
[0:01:45], -156, 64, 64, -4249, -1364, 16385
[0:01:45.100000], -155, 67, 68, -4640, -1255, 16447
[0:01:45.200000], -177, 81, 58, -4327, -1104, 16419
[0:01:45.300000], -178, 84, 82, -4756, -1190, 16420
[0:01:45.400000], -155, 98, 89, -4545, -1232, 16312
[0:01:45.500000], -158, 84, 66, -4605, -917, 16340
[0:01:45.600000], -174, 97, 62, -4804, -1213, 16391
[0:01:45.700000], -158, 80, 65, -4829, -782, 16404
[0:01:45.800000], -161, 79, 84, -4752, -713, 16334
[0:01:45.900000], -158, 89, 64, -4604, -952, 16320
[0:01:46], -161, 95, 86, -4868, -478, 16323
[0:01:46.100000], -153, 108, 72, -4980, -435, 16417
[0:01:46.200000], -169, 90, 94, -4883, -682, 16316
[0:01:46.300000], -152, 107, 69, -5103, -679, 16305
[0:01:46.400000], -143, 106, 80, -4867, -664, 16305
[0:01:46.500000], -156, 98, 83, -5063, -556, 16477
[0:01:46.600000], -136, 111, 78, -5217, -169, 16304
[0:01:46.700000], -148, 113, 72, -4966, -447, 16313
[0:01:46.800000], -140, 101, 93, -5187, -421, 16299
[0:01:46.900000], -142, 116, 74, -4856, -92, 16374
[0:01:47], -132, 98, 98, -4867, -112, 16375
[0:01:47.100000], -150, 104, 76, -5244, 120, 16407
[0:01:47.200000], -143, 101, 75, -4807, -12, 16367
[0:01:47.300000], -138, 116, 81, -5171, -9, 16341
[0:01:47.400000], -126, 106, 72, -4898, 58, 16369
[0:01:47.500000], -130, 108, 101, -5137, 342, 16459
[0:01:47.600000], -138, 102, 85, -4902, 455, 16391
[0:01:47.700000], -146, 111, 80, -4825, 475, 16510
[0:01:47.800000], -142, 115, 89, -4885, 291, 16454
[0:01:47.900000], -131, 105, 75, -5105, 338, 16522
[0:01:48], -112, 108, 75, -4753, 507, 16368
[0:01:48.100000], -110, 122, 86, -4857, 448, 16423
[0:01:48.200000], -116, 119, 86, -4986, 665, 16528
[0:01:48.300000], -131, 117, 86, -4655, 541, 16251
[0:01:48.400000], -107, 120, 93, -4558, 1018, 16343
[0:01:48.500000], -104, 116, 78, -4571, 901, 16262
[0:01:48.600000], -110, 136, 105, -4872, 1101, 16345
[0:01:48.700000], -125, 109, 83, -4449, 1020, 16353
[0:01:48.800000], -100, 123, 103, -4507, 887, 16439
[0:01:48.900000], -116, 124, 80, -4659, 907, 16300
[0:01:49], -115, 123, 101, -4562, 1165, 16254
[0:01:49.100000], -94, 140, 106, -4300, 1354, 16500
[0:01:49.200000], -106, 134, 106, -4369, 1387, 16485
[0:01:49.300000], -100, 120, 102, -4510, 1264, 16318
[0:01:49.400000], -87, 130, 107, -4492, 1652, 16282
[0:01:49.500000], -113, 118, 83, -4356, 1537, 16315
[0:01:49.600000], -85, 127, 98, -4085, 1347, 16370
[0:01:49.700000], -108, 116, 93, -4128, 1768, 16380
[0:01:49.800000], -85, 143, 100, -4033, 1910, 16451
[0:01:49.900000], -76, 120, 105, -4314, 1591, 16291
[0:01:50], -94, 136, 105, -4047, 1932, 16370
[0:01:50.100000], -79, 124, 103, -3807, 1698, 16509
[0:01:50.200000], -77, 124, 101, -4061, 1690, 16416
[0:01:50.300000], -71, 146, 91, -3716, 2061, 16248
[0:01:50.400000], -66, 140, 108, -3861, 1815, 16344
[0:01:50.500000], -84, 152, 105, -3858, 2120, 16266
[0:01:50.600000], -87, 133, 108, -3656, 2169, 16295
[0:01:50.700000], -84, 151, 103, -3671, 2077, 16305
[0:01:50.800000], -65, 136, 100, -3300, 1935, 16455
[0:01:50.900000], -86, 147, 97, -3530, 2458, 16438
[0:01:51], -79, 144, 103, -3164, 2197, 16263
[0:01:51.100000], -71, 140, 96, -2996, 2192, 16279
[0:01:51.200000], -80, 128, 115, -3197, 2424, 16433
[0:01:51.300000], -61, 154, 96, -2840, 2259, 16314
[0:01:51.400000], -54, 156, 106, -2922, 2419, 16443
[0:01:51.500000], -48, 130, 96, -2825, 2489, 16378
[0:01:51.600000], -72, 148, 90, -2608, 2676, 16504
[0:01:51.700000], -68, 156, 116, -2804, 2543, 16372
[0:01:51.800000], -45, 148, 118, -2537, 2618, 16391
[0:01:51.900000], -43, 132, 122, -2406, 2689, 16237
[0:01:52], -59, 153, 92, -2230, 2435, 16260
[0:01:52.100000], -51, 145, 108, -2445, 2550, 16256
[0:01:52.200000], -56, 158, 119, -2175, 2811, 16462
[0:01:52.300000], -49, 139, 93, -2147, 2886, 16463
[0:01:52.400000], -42, 151, 110, -1718, 2948, 16496
[0:01:52.500000], -39, 135, 98, -1971, 3002, 16480
[0:01:52.600000], -21, 157, 98, -1854, 2595, 16494
[0:01:52.700000], -45, 147, 120, -1735, 2924, 16454
[0:01:52.800000], -17, 143, 123, -1760, 2712, 16508
[0:01:52.900000], -43, 152, 113, -1229, 2799, 16379
[0:01:53], -17, 149, 112, -1524, 2950, 16291
[0:01:53.100000], -36, 135, 114, -999, 2907, 16350
[0:01:53.200000], -19, 150, 98, -1125, 2973, 16470
[0:01:53.300000], -25, 145, 115, -941, 2957, 16457
[0:01:53.400000], -4, 150, 110, -1141, 3180, 16343
[0:01:53.500000], -20, 139, 103, -1020, 3099, 16491
[0:01:53.600000], -23, 149, 116, -545, 2979, 16428
[0:01:53.700000], -19, 144, 120, -791, 2730, 16409
[0:01:53.800000], -24, 157, 100, -421, 3028, 16380
[0:01:53.900000], 7, 150, 98, -521, 2964, 16510
[0:01:54], 7, 136, 107, -14, 2909, 16318
[0:01:54.100000], -16, 136, 128, 0, 2864, 16476
[0:01:54.200000], 5, 140, 127, -228, 2840, 16326
[0:01:54.300000], -10, 160, 119, 18, 3186, 16362
[0:01:54.400000], -11, 134, 114, 351, 2966, 16267
[0:01:54.500000], 18, 159, 108, 85, 3120, 16338
[0:01:54.600000], 16, 137, 110, 215, 3027, 16286
[0:01:54.700000], 0, 152, 110, 519, 3000, 16279
[0:01:54.800000], 21, 163, 117, 491, 2820, 16266
[0:01:54.900000], 12, 153, 127, 725, 2837, 16395
[0:01:55], 18, 144, 104, 619, 2747, 16239
[0:01:55.100000], 10, 140, 109, 804, 2788, 16430
[0:01:55.200000], 26, 136, 102, 958, 2826, 16239
[0:01:55.300000], 15, 163, 124, 1271, 2784, 16263
[0:01:55.400000], 32, 151, 110, 1329, 3085, 16527
[0:01:55.500000], 39, 142, 117, 1175, 3040, 16246
[0:01:55.600000], 15, 141, 115, 1379, 3086, 16244
[0:01:55.700000], 20, 153, 116, 1818, 3028, 16332
[0:01:55.800000], 22, 151, 106, 1646, 2822, 16246
[0:01:55.900000], 30, 162, 102, 2023, 2963, 16313
[0:01:56], 30, 162, 104, 1812, 2672, 16434
[0:01:56.100000], 53, 138, 123, 1929, 2561, 16487
[0:01:56.200000], 46, 158, 116, 1910, 2696, 16309
[0:01:56.300000], 59, 134, 114, 2277, 2508, 16339
[0:01:56.400000], 45, 141, 118, 2045, 2820, 16394
[0:01:56.500000], 54, 153, 114, 2548, 2706, 16267
[0:01:56.600000], 48, 139, 113, 2706, 2736, 16534
[0:01:56.700000], 53, 132, 113, 2694, 2440, 16292
[0:01:56.800000], 54, 139, 123, 2793, 2490, 16258
[0:01:56.900000], 60, 155, 112, 2586, 2380, 16310
[0:01:57], 51, 142, 132, 2945, 2480, 16506
[0:01:57.100000], 73, 132, 132, 2885, 2198, 16473
[0:01:57.200000], 76, 132, 111, 2840, 2630, 16283
[0:01:57.300000], 72, 152, 130, 2939, 2240, 16453
[0:01:57.400000], 69, 136, 113, 2982, 2185, 16499
[0:01:57.500000], 64, 136, 108, 3331, 2181, 16283
[0:01:57.600000], 66, 140, 134, 3576, 2371, 16377
[0:01:57.700000], 67, 134, 124, 3671, 2333, 16470
[0:01:57.800000], 90, 140, 112, 3591, 2119, 16325
[0:01:57.900000], 69, 152, 113, 3453, 2062, 16470
[0:01:58], 65, 124, 118, 3551, 1836, 16432
[0:01:58.100000], 81, 138, 127, 3522, 1813, 16374
[0:01:58.200000], 73, 150, 119, 3997, 2149, 16317
[0:01:58.300000], 72, 140, 114, 3923, 1683, 16306
[0:01:58.400000], 82, 124, 132, 3845, 1851, 16271
[0:01:58.500000], 97, 130, 128, 4072, 1657, 16277
[0:01:58.600000], 107, 123, 111, 4116, 1717, 16515
[0:01:58.700000], 83, 133, 125, 3963, 1893, 16426
[0:01:58.800000], 88, 117, 104, 4239, 1847, 16462
[0:01:58.900000], 108, 130, 114, 4371, 1521, 16296
[0:01:59], 87, 128, 117, 4536, 1444, 16501
[0:01:59.100000], 94, 134, 128, 4162, 1504, 16456
[0:01:59.200000], 98, 127, 125, 4191, 1484, 16256
[0:01:59.300000], 103, 115, 124, 4545, 1518, 16460
[0:01:59.400000], 97, 117, 114, 4375, 1156, 16392
[0:01:59.500000], 120, 118, 130, 4553, 994, 16531
[0:01:59.600000], 126, 116, 120, 4477, 908, 16332
[0:01:59.700000], 124, 134, 114, 4779, 1189, 16370
[0:01:59.800000], 122, 119, 131, 4666, 987, 16482
[0:01:59.900000], 111, 128, 123, 4954, 785, 16507
[0:02:00], 113, 110, 125, 4911, 1041, 16387
[0:02:00.100000], 135, 116, 126, 4664, 621, 16370
[0:02:00.200000], 125, 127, 111, 4913, 829, 16301
[0:02:00.300000], 111, 123, 104, 4861, 878, 16422
[0:02:00.400000], 112, 121, 122, 4739, 669, 16523
[0:02:00.500000], 137, 120, 107, 4694, 372, 16501
[0:02:00.600000], 119, 115, 133, 5120, 306, 16461
[0:02:00.700000], 136, 102, 121, 4768, 228, 16394
[0:02:00.800000], 128, 125, 123, 4970, 504, 16265
[0:02:00.900000], 139, 122, 127, 4933, 106, 16420
[0:02:01], 144, 104, 106, 4864, 192, 16525
[0:02:01.100000], 152, 107, 129, 5145, 65, 16282
[0:02:01.200000], 134, 120, 117, 5182, 306, 16431
[0:02:01.300000], 155, 96, 122, 4749, -101, 16413
[0:02:01.400000], 148, 115, 108, 5157, -219, 16268
[0:02:01.500000], 143, 92, 125, 4806, -262, 16422
[0:02:01.600000], 152, 103, 110, 4937, -189, 16373
[0:02:01.700000], 132, 90, 114, 4972, -174, 16310
[0:02:01.800000], 148, 96, 122, 5135, -464, 16374
[0:02:01.900000], 136, 110, 110, 5160, -235, 16453
[0:02:02], 160, 84, 127, 4770, -500, 16277
[0:02:02.100000], 145, 96, 104, 4714, -368, 16299
[0:02:02.200000], 151, 105, 102, 4856, -341, 16521
[0:02:02.300000], 162, 109, 103, 5108, -502, 16418
[0:02:02.400000], 145, 81, 108, 4992, -812, 16389
[0:02:02.500000], 149, 83, 111, 4825, -815, 16467
[0:02:02.600000], 146, 102, 127, 4650, -884, 16358
[0:02:02.700000], 159, 76, 109, 4650, -693, 16329
[0:02:02.800000], 167, 94, 103, 4698, -765, 16358
[0:02:02.900000], 161, 77, 115, 4557, -1030, 16241
[0:02:03], 178, 85, 122, 4650, -897, 16373
[0:02:03.100000], 169, 72, 121, 4722, -1201, 16442
[0:02:03.200000], 168, 84, 117, 4726, -1060, 16527
[0:02:03.300000], 167, 69, 123, 4591, -1270, 16511
[0:02:03.400000], 155, 94, 128, 4474, -1107, 16522
[0:02:03.500000], 181, 83, 122, 4562, -1378, 16363
[0:02:03.600000], 164, 64, 110, 4239, -1576, 16311
[0:02:03.700000], 187, 63, 105, 4458, -1379, 16526
[0:02:03.800000], 183, 82, 129, 4307, -1664, 16473
[0:02:03.900000], 175, 76, 104, 4438, -1598, 16532
[0:02:04], 168, 67, 108, 3968, -1797, 16331
[0:02:04.100000], 179, 85, 105, 4333, -1785, 16440
[0:02:04.200000], 192, 62, 109, 4075, -1851, 16438
[0:02:04.300000], 192, 71, 108, 3812, -1997, 16258
[0:02:04.400000], 186, 54, 100, 4092, -1763, 16317
[0:02:04.500000], 182, 67, 116, 3806, -1708, 16412
[0:02:04.600000], 189, 60, 107, 3560, -2004, 16335
[0:02:04.700000], 196, 56, 99, 3883, -1859, 16276
[0:02:04.800000], 173, 48, 115, 3705, -2300, 16428
[0:02:04.900000], 196, 64, 113, 3721, -2050, 16345
[0:02:05], 186, 51, 111, 3249, -2176, 16525
[0:02:05.100000], 180, 66, 98, 3454, -2246, 16317
[0:02:05.200000], 192, 42, 106, 3458, -2137, 16439
[0:02:05.300000], 185, 43, 104, 3152, -2107, 16378
[0:02:05.400000], 203, 58, 97, 2959, -2325, 16534
[0:02:05.500000], 182, 62, 101, 3120, -2441, 16272
[0:02:05.600000], 176, 37, 112, 2998, -2446, 16410
[0:02:05.700000], 183, 44, 106, 2979, -2421, 16373
[0:02:05.800000], 205, 48, 101, 2729, -2240, 16242
[0:02:05.900000], 197, 42, 99, 2700, -2601, 16395
[0:02:06], 196, 36, 109, 2389, -2538, 16467
[0:02:06.100000], 200, 38, 107, 2582, -2800, 16365
[0:02:06.200000], 205, 52, 112, 2586, -2865, 16422
[0:02:06.300000], 206, 28, 117, 2123, -2679, 16306
[0:02:06.400000], 194, 28, 120, 2234, -2684, 16377
[0:02:06.500000], 201, 23, 94, 2214, -2633, 16244
[0:02:06.600000], 182, 30, 98, 2214, -2662, 16348
[0:02:06.700000], 184, 20, 100, 1782, -2523, 16388
[0:02:06.800000], 200, 19, 111, 1801, -2990, 16385
[0:02:06.900000], 202, 35, 105, 1796, -2740, 16291
[0:02:07], 196, 12, 98, 1681, -2745, 16466
[0:02:07.100000], 204, 22, 108, 1396, -2860, 16313
[0:02:07.200000], 208, 28, 115, 1217, -2814, 16277
[0:02:07.300000], 213, 18, 96, 1515, -2757, 16342
[0:02:07.400000], 191, 7, 114, 1455, -3046, 16327
[0:02:07.500000], 183, 16, 109, 952, -2775, 16355
[0:02:07.600000], 195, 22, 107, 1114, -2941, 16287
[0:02:07.700000], 207, 0, 93, 1020, -2932, 16418
[0:02:07.800000], 209, 5, 101, 869, -2725, 16319
[0:02:07.900000], 211, 24, 114, 585, -3104, 16333
[0:02:08], 205, 23, 92, 793, -2829, 16292
[0:02:08.100000], 212, 21, 87, 397, -2789, 16523
[0:02:08.200000], 198, 0, 112, 220, -2842, 16258
[0:02:08.300000], 200, -5, 95, 216, -3028, 16503
[0:02:08.400000], 209, 13, 105, -45, -2817, 16443
[0:02:08.500000], 187, 5, 98, 257, -3027, 16483
[0:02:08.600000], 210, -11, 95, -328, -2995, 16349
[0:02:08.700000], 192, 2, 107, -129, -2863, 16239
[0:02:08.800000], 184, -4, 99, -499, -2949, 16292
[0:02:08.900000], 204, 4, 109, -404, -2841, 16241
[0:02:09], 213, -8, 85, -531, -3222, 16321
[0:02:09.100000], 207, -10, 99, -750, -2837, 16519
[0:02:09.200000], 203, -23, 91, -813, -3073, 16443
[0:02:09.300000], 207, -27, 105, -867, -3038, 16397
[0:02:09.400000], 210, -25, 106, -747, -2845, 16442
[0:02:09.500000], 201, -17, 100, -1134, -2682, 16426
[0:02:09.600000], 204, -23, 81, -1315, -3064, 16317
[0:02:09.700000], 190, -15, 93, -1438, -2785, 16466
[0:02:09.800000], 183, -11, 100, -1318, -2924, 16492
[0:02:09.900000], 189, -11, 84, -1361, -2715, 16392
[0:02:10], 184, -15, 96, -1730, -3041, 16277
[0:02:10.100000], 182, -10, 82, -1682, -2705, 16350
[0:02:10.200000], 204, -15, 74, -1708, -2671, 16408
[0:02:10.300000], 210, -20, 91, -2146, -2909, 16261
[0:02:10.400000], 210, -32, 76, -1949, -2645, 16522
[0:02:10.500000], 188, -42, 98, -2283, -2825, 16470
[0:02:10.600000], 183, -25, 71, -2440, -2741, 16452
[0:02:10.700000], 186, -31, 71, -2487, -2421, 16267
[0:02:10.800000], 188, -28, 90, -2369, -2485, 16523
[0:02:10.900000], 183, -32, 91, -2702, -2414, 16291
[0:02:11], 194, -36, 72, -2826, -2683, 16305
[0:02:11.100000], 196, -53, 92, -2505, -2614, 16295
[0:02:11.200000], 196, -46, 98, -2643, -2689, 16421
[0:02:11.300000], 186, -54, 91, -2847, -2486, 16475
[0:02:11.400000], 202, -41, 93, -2848, -2635, 16517
[0:02:11.500000], 184, -52, 94, -3212, -2205, 16455
[0:02:11.600000], 190, -40, 77, -2928, -2553, 16487
[0:02:11.700000], 175, -62, 66, -3150, -2332, 16328
[0:02:11.800000], 192, -48, 65, -3222, -2338, 16381
[0:02:11.900000], 199, -58, 79, -3297, -2194, 16523
[0:02:12], 199, -71, 65, -3714, -2092, 16421
[0:02:12.100000], 195, -60, 69, -3557, -1987, 16361
[0:02:12.200000], 179, -63, 62, -3870, -1924, 16242
[0:02:12.300000], 180, -66, 64, -3591, -2013, 16486
[0:02:12.400000], 184, -54, 82, -4017, -1904, 16306
[0:02:12.500000], 176, -57, 82, -4028, -1918, 16380
[0:02:12.600000], 193, -63, 81, -3891, -2040, 16291
[0:02:12.700000], 181, -78, 83, -3893, -1703, 16447
[0:02:12.800000], 167, -66, 83, -3834, -1715, 16489
[0:02:12.900000], 174, -71, 75, -4074, -1612, 16392
[0:02:13], 180, -55, 69, -4197, -1739, 16403
[0:02:13.100000], 179, -57, 60, -4459, -1679, 16249
[0:02:13.200000], 161, -78, 78, -4493, -1480, 16432
[0:02:13.300000], 181, -63, 78, -4456, -1721, 16287
[0:02:13.400000], 176, -73, 54, -4158, -1609, 16352
[0:02:13.500000], 185, -85, 58, -4347, -1555, 16370
[0:02:13.600000], 155, -78, 76, -4567, -1449, 16450
[0:02:13.700000], 156, -93, 62, -4306, -1300, 16292
[0:02:13.800000], 173, -80, 77, -4771, -1199, 16523
[0:02:13.900000], 179, -92, 79, -4568, -885, 16296
[0:02:14], 174, -84, 58, -4873, -828, 16274
[0:02:14.100000], 174, -89, 78, -4463, -1249, 16241
[0:02:14.200000], 154, -98, 62, -4662, -1178, 16523
[0:02:14.300000], 166, -93, 67, -4733, -902, 16423
[0:02:14.400000], 171, -88, 78, -4706, -917, 16411
[0:02:14.500000], 147, -106, 68, -4787, -727, 16362
[0:02:14.600000], 161, -83, 58, -5030, -918, 16265
[0:02:14.700000], 164, -95, 53, -4736, -861, 16503
[0:02:14.800000], 157, -95, 59, -4985, -654, 16294
[0:02:14.900000], 167, -104, 56, -4756, -325, 16380
[0:02:15], 148, -89, 47, -4698, -579, 16244
[0:02:15.100000], 137, -86, 55, -4889, -469, 16237
[0:02:15.200000], 153, -110, 58, -5023, -212, 16467
[0:02:15.300000], 154, -104, 55, -4946, 3, 16422
[0:02:15.400000], 141, -99, 71, -4987, -90, 16272
[0:02:15.500000], 138, -117, 49, -5121, 23, 16283
[0:02:15.600000], 147, -107, 43, -5126, 198, 16459
[0:02:15.700000], 150, -113, 54, -4902, 217, 16522
[0:02:15.800000], 154, -93, 59, -4967, 123, 16414
[0:02:15.900000], 140, -110, 65, -4814, 339, 16367
[0:02:16], 134, -112, 60, -4793, 190, 16263
[0:02:16.100000], 135, -97, 55, -5100, 333, 16501
[0:02:16.200000], 118, -118, 41, -4756, 478, 16332
[0:02:16.300000], 143, -113, 63, -4960, 283, 16329
[0:02:16.400000], 117, -122, 64, -4986, 453, 16359
[0:02:16.500000], 135, -102, 45, -4775, 579, 16458
[0:02:16.600000], 135, -121, 49, -5104, 368, 16433
[0:02:16.700000], 132, -122, 37, -4870, 463, 16367
[0:02:16.800000], 109, -132, 44, -4974, 540, 16453
[0:02:16.900000], 124, -120, 47, -4618, 728, 16346
[0:02:17], 111, -111, 31, -4741, 907, 16363
[0:02:17.100000], 106, -127, 38, -4798, 935, 16464
[0:02:17.200000], 114, -137, 55, -4474, 919, 16394
[0:02:17.300000], 108, -120, 52, -4562, 1032, 16430
[0:02:17.400000], 123, -118, 40, -4420, 1355, 16358
[0:02:17.500000], 108, -130, 29, -4548, 1158, 16362
[0:02:17.600000], 97, -133, 50, -4448, 1260, 16508
[0:02:17.700000], 119, -125, 37, -4387, 1262, 16367
[0:02:17.800000], 100, -123, 32, -4488, 1573, 16283
[0:02:17.900000], 111, -117, 44, -4336, 1432, 16453
[0:02:18], 107, -144, 36, -4127, 1603, 16252
[0:02:18.100000], 91, -143, 46, -4135, 1298, 16406
[0:02:18.200000], 98, -144, 44, -4428, 1640, 16513
[0:02:18.300000], 93, -138, 22, -3932, 1825, 16302
[0:02:18.400000], 79, -125, 34, -4239, 1668, 16312
[0:02:18.500000], 77, -148, 24, -4230, 1998, 16496
[0:02:18.600000], 78, -132, 44, -4223, 1610, 16433
[0:02:18.700000], 94, -124, 45, -3685, 1937, 16461
[0:02:18.800000], 96, -124, 34, -3793, 2090, 16497
[0:02:18.900000], 89, -129, 24, -3985, 1959, 16462
[0:02:19], 83, -145, 42, -3887, 2231, 16414
[0:02:19.100000], 75, -138, 32, -3520, 1832, 16394
[0:02:19.200000], 84, -144, 17, -3708, 2354, 16519
[0:02:19.300000], 89, -150, 13, -3428, 2246, 16248
[0:02:19.400000], 85, -128, 18, -3338, 2125, 16469
[0:02:19.500000], 69, -137, 39, -3299, 2259, 16471
[0:02:19.600000], 77, -141, 23, -3137, 2414, 16456
[0:02:19.700000], 51, -151, 31, -3275, 2241, 16511
[0:02:19.800000], 75, -147, 35, -3083, 2466, 16486
[0:02:19.900000], 57, -132, 7, -2927, 2590, 16421
[0:02:20], 47, -156, 7, -3123, 2593, 16366
[0:02:20.100000], 44, -156, 33, -2870, 2437, 16334
[0:02:20.200000], 42, -129, 6, -2857, 2693, 16334
[0:02:20.300000], 61, -151, 29, -2537, 2499, 16241
[0:02:20.400000], 38, -158, 33, -2462, 2459, 16508
[0:02:20.500000], 53, -131, 22, -2215, 2620, 16380
[0:02:20.600000], 57, -155, 27, -2466, 2527, 16371
[0:02:20.700000], 43, -157, 2, -2415, 2792, 16456
[0:02:20.800000], 39, -157, 0, -2267, 2935, 16245
[0:02:20.900000], 44, -132, 29, -2279, 2552, 16458
[0:02:21], 29, -140, 21, -2098, 2817, 16522
[0:02:21.100000], 46, -141, 8, -1827, 2838, 16356
[0:02:21.200000], 43, -161, 23, -1900, 2644, 16515
[0:02:21.300000], 34, -140, 0, -1433, 2691, 16236
[0:02:21.400000], 44, -153, 12, -1552, 3049, 16411
[0:02:21.500000], 43, -150, 21, -1529, 2711, 16446
[0:02:21.600000], 16, -142, 1, -1410, 2990, 16514
[0:02:21.700000], 39, -139, 19, -1014, 3095, 16500
[0:02:21.800000], 7, -135, 5, -1035, 3057, 16347
[0:02:21.900000], 17, -144, -2, -939, 3006, 16237
[0:02:22], 6, -163, -8, -904, 3196, 16505
[0:02:22.100000], 11, -158, 4, -576, 2911, 16325
[0:02:22.200000], -1, -149, -3, -560, 3197, 16483
[0:02:22.300000], 25, -139, 15, -550, 3063, 16378
[0:02:22.400000], 20, -162, -9, -243, 3020, 16388
[0:02:22.500000], -3, -150, -12, -277, 2862, 16485
[0:02:22.600000], 4, -143, -8, -234, 3183, 16337
[0:02:22.700000], 7, -134, 7, -219, 3186, 16472
[0:02:22.800000], -3, -141, -12, -174, 2862, 16386
[0:02:22.900000], -13, -142, -3, -108, 2898, 16531
[0:02:23], -17, -145, -6, -24, 3177, 16484
[0:02:23.100000], 4, -157, -1, 438, 2952, 16290
[0:02:23.200000], -13, -150, -1, 446, 2843, 16314
[0:02:23.300000], 0, -161, 0, 320, 3158, 16260
[0:02:23.400000], -15, -147, -6, 748, 2966, 16439
[0:02:23.500000], -12, -155, -11, 612, 2857, 16530
[0:02:23.600000], -6, -139, 7, 664, 3119, 16243
[0:02:23.700000], -16, -139, -17, 1028, 3082, 16366
[0:02:23.800000], -28, -137, -9, 1178, 3160, 16428
[0:02:23.900000], -9, -163, 5, 1336, 2722, 16354
[0:02:24], -25, -160, -5, 1202, 2668, 16353
[0:02:24.100000], -24, -156, -8, 1385, 2736, 16509
[0:02:24.200000], -17, -153, -10, 1582, 2852, 16439
[0:02:24.300000], -26, -162, -19, 1556, 2810, 16310
[0:02:24.400000], -50, -136, -6, 1707, 3065, 16294
[0:02:24.500000], -30, -134, -8, 1599, 2670, 16272
[0:02:24.600000], -43, -149, -3, 1953, 2690, 16423
[0:02:24.700000], -53, -148, -17, 2186, 2844, 16243
[0:02:24.800000], -33, -157, -7, 1924, 2900, 16433
[0:02:24.900000], -43, -157, -9, 2225, 2910, 16465
[0:02:25], -40, -145, -10, 2302, 2706, 16370
[0:02:25.100000], -60, -142, -20, 2570, 2396, 16496
[0:02:25.200000], -60, -145, -12, 2305, 2799, 16440
[0:02:25.300000], -62, -153, -21, 2550, 2535, 16275
[0:02:25.400000], -67, -144, -16, 2739, 2280, 16441
[0:02:25.500000], -53, -153, -22, 3017, 2530, 16277
[0:02:25.600000], -61, -150, -18, 2760, 2554, 16527
[0:02:25.700000], -55, -157, -20, 3003, 2397, 16447
[0:02:25.800000], -53, -153, -33, 3167, 2511, 16234
[0:02:25.900000], -58, -151, -29, 3198, 2171, 16293
[0:02:26], -59, -144, -27, 3003, 2238, 16370
[0:02:26.100000], -78, -129, -11, 3567, 2201, 16326
[0:02:26.200000], -83, -126, -15, 3174, 2067, 16250
[0:02:26.300000], -86, -124, -31, 3490, 2019, 16332
[0:02:26.400000], -82, -135, -39, 3641, 2232, 16495
[0:02:26.500000], -82, -152, -27, 3684, 2180, 16459
[0:02:26.600000], -72, -129, -34, 3803, 2141, 16322
[0:02:26.700000], -70, -146, -44, 3705, 2066, 16372
[0:02:26.800000], -74, -131, -26, 3907, 1681, 16431
[0:02:26.900000], -90, -136, -44, 4044, 2093, 16249
[0:02:27], -87, -149, -17, 4085, 1748, 16272
[0:02:27.100000], -79, -125, -25, 4146, 1918, 16405
[0:02:27.200000], -79, -127, -22, 3930, 1691, 16308
[0:02:27.300000], -90, -142, -39, 4146, 1491, 16534
[0:02:27.400000], -106, -126, -43, 4188, 1370, 16506
[0:02:27.500000], -102, -128, -47, 4160, 1717, 16435
[0:02:27.600000], -88, -137, -30, 4569, 1466, 16269
[0:02:27.700000], -91, -131, -37, 4512, 1302, 16252
[0:02:27.800000], -107, -125, -36, 4466, 1245, 16347
[0:02:27.900000], -100, -124, -31, 4322, 1145, 16278
[0:02:28], -120, -127, -27, 4567, 1184, 16297
[0:02:28.100000], -106, -121, -53, 4398, 1340, 16438
[0:02:28.200000], -99, -125, -34, 4847, 1320, 16485
[0:02:28.300000], -103, -131, -38, 4546, 1182, 16485
[0:02:28.400000], -106, -127, -55, 4859, 950, 16344
[0:02:28.500000], -131, -117, -59, 4805, 1087, 16351
[0:02:28.600000], -114, -118, -55, 4648, 1030, 16334
[0:02:28.700000], -119, -132, -51, 4731, 839, 16278
[0:02:28.800000], -134, -127, -48, 4829, 785, 16458
[0:02:28.900000], -112, -102, -59, 4989, 433, 16514
[0:02:29], -135, -102, -53, 5092, 808, 16427
[0:02:29.100000], -116, -102, -34, 5031, 555, 16427
[0:02:29.200000], -119, -127, -41, 4804, 709, 16257
[0:02:29.300000], -120, -100, -52, 4815, 188, 16305
[0:02:29.400000], -131, -99, -40, 4855, 581, 16509
[0:02:29.500000], -125, -123, -65, 5222, 200, 16445
[0:02:29.600000], -134, -104, -67, 5092, 159, 16391
[0:02:29.700000], -133, -114, -47, 5013, 19, 16411
[0:02:29.800000], -137, -118, -51, 4937, 135, 16236
[0:02:29.900000], -127, -107, -53, 4799, 217, 16511
[0:02:30], 159, -69, -2, -4703, -1290, 16251
[0:02:30.100000], 155, -89, -6, -4547, -1023, 16474
[0:02:30.200000], 177, -91, -5, -4518, -1175, 16471
[0:02:30.300000], 148, -102, 14, -4642, -1055, 16360
[0:02:30.400000], 151, -102, 21, -4574, -751, 16240
[0:02:30.500000], 144, -103, 9, -4623, -730, 16298
[0:02:30.600000], 163, -105, 2, -4879, -781, 16512
[0:02:30.700000], 156, -101, 9, -4976, -559, 16419
[0:02:30.800000], 153, -109, 21, -5014, -376, 16503
[0:02:30.900000], 163, -109, 16, -4778, -285, 16343
[0:02:31], 147, -103, 15, -5174, -171, 16354
[0:02:31.100000], 148, -88, 1, -5002, -292, 16513
[0:02:31.200000], 137, -110, 1, -4945, -328, 16241
[0:02:31.300000], 136, -110, 28, -5025, -88, 16455
[0:02:31.400000], 140, -96, 19, -4965, -300, 16329
[0:02:31.500000], 130, -117, 13, -4796, 96, 16296
[0:02:31.600000], 137, -112, 23, -5015, 227, 16376
[0:02:31.700000], 131, -98, 36, -4860, -50, 16384
[0:02:31.800000], 119, -104, 37, -4807, 111, 16528
[0:02:31.900000], 134, -110, 27, -5134, 189, 16440
[0:02:32], 131, -118, 13, -4852, 448, 16406
[0:02:32.100000], 142, -111, 38, -4698, 466, 16333
[0:02:32.200000], 137, -118, 30, -5056, 728, 16501
[0:02:32.300000], 137, -131, 39, -4678, 725, 16473
[0:02:32.400000], 135, -116, 25, -4733, 841, 16287
[0:02:32.500000], 110, -109, 42, -4734, 768, 16328
[0:02:32.600000], 105, -110, 22, -4509, 730, 16390
[0:02:32.700000], 101, -112, 22, -4493, 1227, 16363
[0:02:32.800000], 107, -117, 17, -4718, 1071, 16295
[0:02:32.900000], 105, -128, 37, -4631, 1273, 16284
[0:02:33], 115, -136, 24, -4591, 1230, 16511
[0:02:33.100000], 105, -129, 45, -4720, 1435, 16350
[0:02:33.200000], 97, -125, 36, -4306, 1605, 16440
[0:02:33.300000], 87, -132, 46, -4367, 1671, 16302
[0:02:33.400000], 105, -118, 35, -4525, 1670, 16254
[0:02:33.500000], 89, -118, 24, -4117, 1370, 16454
[0:02:33.600000], 106, -129, 46, -4341, 1643, 16355
[0:02:33.700000], 95, -146, 34, -3971, 1799, 16379
[0:02:33.800000], 85, -120, 54, -4222, 1806, 16334
[0:02:33.900000], 93, -120, 31, -3817, 1740, 16505
[0:02:34], 97, -150, 49, -3936, 1912, 16239
[0:02:34.100000], 90, -144, 33, -3937, 2068, 16525
[0:02:34.200000], 64, -131, 49, -3550, 2033, 16522
[0:02:34.300000], 87, -142, 50, -3698, 2170, 16483
[0:02:34.400000], 87, -136, 54, -3204, 2083, 16494
[0:02:34.500000], 76, -128, 49, -3368, 2250, 16373
[0:02:34.600000], 65, -127, 40, -3171, 2461, 16321
[0:02:34.700000], 66, -137, 56, -2963, 2156, 16324
[0:02:34.800000], 57, -135, 62, -2749, 2614, 16370
[0:02:34.900000], 48, -128, 48, -3109, 2668, 16347
[0:02:35], 70, -135, 67, -2726, 2751, 16409
[0:02:35.100000], 49, -153, 63, -2632, 2628, 16314
[0:02:35.200000], 39, -133, 69, -2262, 2406, 16512
[0:02:35.300000], 37, -130, 52, -2490, 2624, 16415
[0:02:35.400000], 40, -134, 43, -2178, 2766, 16526
[0:02:35.500000], 40, -161, 51, -2114, 2465, 16249
[0:02:35.600000], 36, -149, 44, -1780, 2995, 16533
[0:02:35.700000], 40, -155, 58, -1667, 2574, 16454
[0:02:35.800000], 26, -138, 68, -1578, 3018, 16234
[0:02:35.900000], 21, -146, 55, -1434, 2801, 16333
[0:02:36], 43, -162, 75, -1668, 2939, 16416
[0:02:36.100000], 14, -140, 51, -1421, 2667, 16320
[0:02:36.200000], 30, -144, 78, -1115, 2921, 16293
[0:02:36.300000], 35, -136, 55, -1271, 2768, 16303
[0:02:36.400000], 16, -145, 55, -1164, 2760, 16451
[0:02:36.500000], 30, -157, 59, -834, 2830, 16298
[0:02:36.600000], 5, -143, 61, -496, 3089, 16368
[0:02:36.700000], 14, -163, 77, -283, 2919, 16311
[0:02:36.800000], 10, -144, 72, -335, 2868, 16319
[0:02:36.900000], 19, -150, 63, -384, 2871, 16531
[0:02:37], -4, -134, 69, -10, 3004, 16527
[0:02:37.100000], 0, -163, 79, 20, 2882, 16251
[0:02:37.200000], -9, -164, 81, 298, 3056, 16371
[0:02:37.300000], -9, -144, 58, 530, 3130, 16403
[0:02:37.400000], -12, -151, 84, 625, 2839, 16305
[0:02:37.500000], 2, -162, 71, 748, 2913, 16253
[0:02:37.600000], -9, -143, 73, 647, 3135, 16472
[0:02:37.700000], -27, -146, 61, 843, 3179, 16241
[0:02:37.800000], -35, -155, 75, 1136, 2859, 16458
[0:02:37.900000], -23, -153, 92, 1051, 2696, 16519
[0:02:38], -19, -144, 71, 1521, 2791, 16359
[0:02:38.100000], -27, -141, 68, 1609, 3109, 16485
[0:02:38.200000], -39, -152, 66, 1487, 3054, 16530
[0:02:38.300000], -28, -156, 91, 1466, 2868, 16484
[0:02:38.400000], -45, -136, 82, 1816, 2929, 16415
[0:02:38.500000], -37, -143, 66, 2125, 2682, 16439
[0:02:38.600000], -31, -142, 87, 1917, 2919, 16369
[0:02:38.700000], -42, -142, 98, 1955, 2598, 16304
[0:02:38.800000], -45, -151, 76, 2559, 2746, 16477
[0:02:38.900000], -49, -156, 83, 2430, 2784, 16370
[0:02:39], -46, -139, 78, 2463, 2418, 16480
[0:02:39.100000], -67, -139, 70, 2677, 2728, 16390
[0:02:39.200000], -58, -133, 94, 2583, 2690, 16497
[0:02:39.300000], -47, -135, 86, 2677, 2349, 16235
[0:02:39.400000], -52, -157, 75, 3138, 2240, 16370
[0:02:39.500000], -67, -156, 78, 2996, 2134, 16474
[0:02:39.600000], -72, -154, 77, 3000, 2438, 16492
[0:02:39.700000], -58, -140, 85, 3444, 2276, 16349
[0:02:39.800000], -77, -137, 101, 3325, 2091, 16371
[0:02:39.900000], -61, -146, 92, 3367, 2026, 16503
[0:02:40], -78, -147, 104, 3803, 1971, 16525
[0:02:40.100000], -92, -135, 99, 3608, 2069, 16392
[0:02:40.200000], -71, -123, 79, 3722, 2056, 16348
[0:02:40.300000], -85, -125, 103, 4157, 1994, 16252
[0:02:40.400000], -91, -127, 85, 4102, 2037, 16353
[0:02:40.500000], -104, -145, 92, 3998, 1792, 16234
[0:02:40.600000], -107, -143, 108, 4025, 1744, 16442
[0:02:40.700000], -98, -117, 85, 4014, 1545, 16430
[0:02:40.800000], -93, -137, 97, 4531, 1505, 16326
[0:02:40.900000], -86, -135, 95, 4295, 1452, 16374
[0:02:41], -118, -118, 113, 4548, 1498, 16416
[0:02:41.100000], -106, -129, 96, 4736, 1042, 16276
[0:02:41.200000], -96, -127, 96, 4527, 1372, 16398
[0:02:41.300000], -103, -133, 94, 4436, 1062, 16418
[0:02:41.400000], -128, -112, 108, 4465, 1268, 16319
[0:02:41.500000], -126, -121, 115, 4895, 1118, 16445
[0:02:41.600000], -124, -125, 113, 4636, 1122, 16307
[0:02:41.700000], -116, -132, 96, 4741, 950, 16447
[0:02:41.800000], -134, -124, 89, 4841, 772, 16328
[0:02:41.900000], -119, -117, 104, 4967, 444, 16245
[0:02:42], -129, -125, 89, 4864, 495, 16362
[0:02:42.100000], -117, -125, 118, 4771, 321, 16518
[0:02:42.200000], -123, -104, 112, 4703, 358, 16252
[0:02:42.300000], -136, -115, 101, 5162, 505, 16326
[0:02:42.400000], -141, -118, 103, 4910, 197, 16447
[0:02:42.500000], -122, -101, 100, 4950, 157, 16417
[0:02:42.600000], -131, -113, 118, 5090, -80, 16281
[0:02:42.700000], -130, -116, 118, 5042, 154, 16300
[0:02:42.800000], -133, -116, 104, 5030, -217, 16447
[0:02:42.900000], -137, -103, 94, 4828, 6, 16490
[0:02:43], -162, -110, 106, 5127, -347, 16407
[0:02:43.100000], -145, -96, 105, 5100, -561, 16471
[0:02:43.200000], -147, -93, 99, 4928, -517, 16527
[0:02:43.300000], -159, -109, 99, 5020, -349, 16486
[0:02:43.400000], -143, -96, 102, 4805, -706, 16259
[0:02:43.500000], -170, -79, 112, 4939, -806, 16326
[0:02:43.600000], -145, -99, 117, 4744, -674, 16363
[0:02:43.700000], -162, -102, 116, 5046, -823, 16464
[0:02:43.800000], -152, -95, 107, 4805, -695, 16361
[0:02:43.900000], -174, -81, 122, 4848, -929, 16241
[0:02:44], -167, -82, 107, 4627, -835, 16401
[0:02:44.100000], -179, -89, 107, 4567, -1152, 16290
[0:02:44.200000], -178, -96, 103, 4415, -1333, 16404
[0:02:44.300000], -161, -72, 116, 4598, -1394, 16428
[0:02:44.400000], -164, -74, 111, 4504, -1575, 16533
[0:02:44.500000], -183, -63, 128, 4427, -1411, 16363
[0:02:44.600000], -169, -86, 107, 4206, -1477, 16285
[0:02:44.700000], -177, -62, 119, 4420, -1382, 16421
[0:02:44.800000], -186, -82, 121, 4187, -1573, 16396
[0:02:44.900000], -177, -72, 118, 3938, -1986, 16511
[0:02:45], -191, -61, 110, 3848, -1752, 16273
[0:02:45.100000], -176, -57, 101, 4087, -1991, 16437
[0:02:45.200000], -171, -78, 119, 3962, -1790, 16336
[0:02:45.300000], -194, -57, 106, 3822, -1922, 16486
[0:02:45.400000], -186, -63, 109, 3719, -2055, 16234
[0:02:45.500000], -184, -55, 129, 3372, -2184, 16393
[0:02:45.600000], -180, -47, 110, 3660, -2332, 16335
[0:02:45.700000], -181, -59, 131, 3382, -2251, 16518
[0:02:45.800000], -190, -66, 116, 3121, -2429, 16474
[0:02:45.900000], -202, -54, 129, 3255, -2179, 16499
[0:02:46], -187, -37, 108, 3066, -2340, 16501
[0:02:46.100000], -197, -42, 111, 2755, -2616, 16529
[0:02:46.200000], -185, -40, 133, 2925, -2358, 16251
[0:02:46.300000], -186, -43, 114, 2522, -2680, 16435
[0:02:46.400000], -178, -28, 111, 2406, -2669, 16365
[0:02:46.500000], -191, -28, 103, 2631, -2823, 16259
[0:02:46.600000], -188, -45, 123, 2182, -2790, 16375
[0:02:46.700000], -192, -19, 130, 2205, -2788, 16316
[0:02:46.800000], -201, -34, 128, 1852, -2912, 16489
[0:02:46.900000], -192, -16, 107, 1736, -2724, 16501
[0:02:47], -193, -30, 106, 1895, -2741, 16510
[0:02:47.100000], -206, -37, 130, 1708, -2672, 16277
[0:02:47.200000], -192, -11, 133, 1708, -2669, 16256
[0:02:47.300000], -189, -11, 133, 1359, -2945, 16490
[0:02:47.400000], -197, -10, 112, 1332, -2925, 16335
[0:02:47.500000], -196, -25, 122, 887, -2830, 16493
[0:02:47.600000], -213, -23, 111, 893, -2888, 16455
[0:02:47.700000], -187, 2, 105, 987, -2965, 16437
[0:02:47.800000], -188, -25, 126, 502, -3212, 16388
[0:02:47.900000], -211, -11, 109, 484, -2831, 16348
[0:02:48], -203, -4, 119, 456, -2980, 16452
[0:02:48.100000], -185, -18, 114, 161, -2799, 16426
[0:02:48.200000], -206, 12, 119, 239, -3206, 16439
[0:02:48.300000], -188, 2, 130, -209, -2858, 16399
[0:02:48.400000], -214, 11, 107, -51, -2758, 16275
[0:02:48.500000], -210, 7, 122, -71, -3241, 16440
[0:02:48.600000], -186, 21, 118, -237, -3037, 16475
[0:02:48.700000], -214, 17, 120, -755, -3202, 16381
[0:02:48.800000], -206, 20, 127, -522, -3109, 16387
[0:02:48.900000], -206, 19, 105, -1003, -2741, 16408
[0:02:49], -205, 21, 121, -841, -2982, 16337
[0:02:49.100000], -210, 18, 115, -1036, -2997, 16486
[0:02:49.200000], -206, 31, 122, -1031, -3142, 16278
[0:02:49.300000], -209, 32, 115, -1155, -3086, 16488
[0:02:49.400000], -191, 34, 122, -1287, -2770, 16483
[0:02:49.500000], -206, 33, 121, -1704, -3016, 16505
[0:02:49.600000], -197, 30, 132, -1673, -2695, 16466
[0:02:49.700000], -182, 19, 116, -2124, -2732, 16381
[0:02:49.800000], -197, 32, 126, -2065, -2835, 16418
[0:02:49.900000], -180, 19, 129, -2121, -2902, 16465
[0:02:50], -201, 43, 114, -2228, -2636, 16235
[0:02:50.100000], -203, 29, 104, -2187, -2421, 16244
[0:02:50.200000], -193, 36, 113, -2396, -2400, 16310
[0:02:50.300000], -206, 31, 103, -2701, -2671, 16294
[0:02:50.400000], -181, 29, 133, -2547, -2717, 16359
[0:02:50.500000], -194, 38, 128, -2886, -2342, 16256
[0:02:50.600000], -180, 51, 123, -2827, -2610, 16393
[0:02:50.700000], -182, 54, 126, -3279, -2178, 16410
[0:02:50.800000], -175, 50, 126, -3440, -2523, 16300
[0:02:50.900000], -192, 65, 124, -3122, -2423, 16285
[0:02:51], -184, 48, 124, -3363, -1965, 16302
[0:02:51.100000], -176, 42, 102, -3315, -2245, 16480
[0:02:51.200000], -191, 59, 131, -3492, -2039, 16492
[0:02:51.300000], -169, 71, 101, -3657, -2011, 16485
[0:02:51.400000], -194, 59, 124, -3812, -1750, 16385
[0:02:51.500000], -168, 57, 111, -3938, -2060, 16399
[0:02:51.600000], -176, 65, 125, -3742, -1563, 16336
[0:02:51.700000], -188, 82, 100, -4139, -1589, 16513
[0:02:51.800000], -187, 80, 114, -4181, -1643, 16315
[0:02:51.900000], -180, 76, 113, -4142, -1830, 16343
[0:02:52], -186, 59, 123, -4524, -1607, 16434
[0:02:52.100000], -186, 67, 105, -4491, -1254, 16429
[0:02:52.200000], -169, 90, 115, -4412, -1341, 16451
[0:02:52.300000], -183, 75, 102, -4356, -1520, 16378
[0:02:52.400000], -161, 79, 120, -4480, -1279, 16291
[0:02:52.500000], -153, 87, 125, -4438, -1323, 16330
[0:02:52.600000], -169, 75, 105, -4431, -1324, 16336
[0:02:52.700000], -150, 74, 106, -4644, -1029, 16368
[0:02:52.800000], -151, 88, 106, -4748, -1072, 16280
[0:02:52.900000], -160, 81, 104, -4615, -869, 16272
[0:02:53], -162, 93, 116, -4754, -651, 16473
[0:02:53.100000], -170, 106, 104, -4669, -724, 16271
[0:02:53.200000], -164, 92, 99, -4700, -795, 16534
[0:02:53.300000], -150, 82, 117, -4693, -712, 16243
[0:02:53.400000], -140, 108, 109, -4802, -371, 16453
[0:02:53.500000], -142, 113, 116, -4729, -425, 16456
[0:02:53.600000], -158, 112, 103, -4851, -492, 16447
[0:02:53.700000], -131, 112, 107, -5120, 0, 16323
[0:02:53.800000], -140, 107, 117, -5131, -311, 16505
[0:02:53.900000], -133, 114, 109, -5210, -227, 16339
[0:02:54], -154, 104, 112, -5078, 105, 16335
[0:02:54.100000], -147, 105, 105, -5099, 320, 16318
[0:02:54.200000], -137, 104, 94, -4765, 84, 16290
[0:02:54.300000], -122, 116, 116, -5164, 304, 16376
[0:02:54.400000], -141, 125, 102, -4768, 257, 16322
[0:02:54.500000], -120, 113, 97, -4829, 631, 16275
[0:02:54.600000], -122, 101, 103, -4909, 543, 16497
[0:02:54.700000], -127, 123, 91, -4846, 457, 16317
[0:02:54.800000], -108, 117, 112, -4661, 716, 16241
[0:02:54.900000], -135, 130, 99, -5018, 651, 16411
[0:02:55], -122, 116, 115, -4584, 912, 16353
[0:02:55.100000], -108, 120, 85, -4916, 968, 16414
[0:02:55.200000], -108, 138, 85, -4489, 901, 16310
[0:02:55.300000], -109, 128, 106, -4859, 1044, 16531
[0:02:55.400000], -97, 122, 104, -4462, 1346, 16268
[0:02:55.500000], -98, 112, 91, -4590, 1261, 16532
[0:02:55.600000], -107, 131, 84, -4609, 1558, 16532
[0:02:55.700000], -110, 143, 107, -4513, 1323, 16479
[0:02:55.800000], -114, 115, 92, -4558, 1723, 16277
[0:02:55.900000], -93, 126, 98, -4066, 1614, 16525
[0:02:56], -93, 147, 101, -4265, 1898, 16365
[0:02:56.100000], -96, 147, 97, -4048, 1787, 16324
[0:02:56.200000], -104, 147, 87, -4087, 1819, 16502
[0:02:56.300000], -72, 150, 79, -3943, 1819, 16429
[0:02:56.400000], -72, 140, 103, -4039, 1899, 16353
[0:02:56.500000], -95, 140, 104, -3789, 2171, 16449
[0:02:56.600000], -78, 123, 98, -3596, 1989, 16476
[0:02:56.700000], -65, 124, 105, -3719, 2314, 16401
[0:02:56.800000], -62, 130, 82, -3655, 2228, 16348
[0:02:56.900000], -82, 130, 93, -3512, 2477, 16333
[0:02:57], -65, 153, 84, -3199, 2082, 16504
[0:02:57.100000], -62, 147, 100, -3096, 2184, 16489
[0:02:57.200000], -49, 141, 93, -2879, 2549, 16504
[0:02:57.300000], -57, 156, 91, -2934, 2452, 16387
[0:02:57.400000], -56, 155, 99, -2740, 2507, 16416
[0:02:57.500000], -50, 152, 86, -2698, 2596, 16390
[0:02:57.600000], -56, 133, 75, -2416, 2334, 16284
[0:02:57.700000], -42, 155, 87, -2216, 2392, 16389
[0:02:57.800000], -57, 147, 73, -2172, 2483, 16316
[0:02:57.900000], -39, 139, 69, -2077, 2686, 16415
[0:02:58], -55, 135, 84, -2102, 2768, 16399
[0:02:58.100000], -40, 148, 72, -2124, 2649, 16314
[0:02:58.200000], -23, 153, 92, -1661, 2998, 16383
[0:02:58.300000], -20, 158, 71, -1596, 2594, 16307
[0:02:58.400000], -37, 162, 88, -1316, 2900, 16343
[0:02:58.500000], -38, 157, 84, -1563, 3103, 16533
[0:02:58.600000], -40, 151, 89, -1166, 3076, 16362
[0:02:58.700000], -37, 164, 81, -1230, 2846, 16449
[0:02:58.800000], -12, 145, 79, -960, 2749, 16295
[0:02:58.900000], -5, 145, 76, -691, 2949, 16491
[0:02:59], -2, 149, 81, -673, 3024, 16388
[0:02:59.100000], 2, 164, 59, -786, 2800, 16287
[0:02:59.200000], -5, 149, 80, -465, 3084, 16272
[0:02:59.300000], -10, 146, 84, -390, 2890, 16239
[0:02:59.400000], 6, 155, 77, -278, 3201, 16421
[0:02:59.500000], -13, 140, 83, -184, 2862, 16407
[0:02:59.600000], 16, 157, 62, 205, 2960, 16436
[0:02:59.700000], 7, 154, 74, 450, 2918, 16461
[0:02:59.800000], 1, 164, 83, 469, 2762, 16478
[0:02:59.900000], 14, 164, 70, 354, 3112, 16509
[0:03:00], 10, 163, 80, 919, 2987, 16258
[0:03:00.100000], 7, 161, 80, 775, 2804, 16477
[0:03:00.200000], 29, 160, 67, 704, 2998, 16390
[0:03:00.300000], 36, 159, 77, 1076, 3063, 16403
[0:03:00.400000], 14, 159, 65, 1218, 2754, 16249
[0:03:00.500000], 42, 141, 58, 1446, 3133, 16359
[0:03:00.600000], 32, 152, 73, 1693, 2645, 16470
[0:03:00.700000], 17, 157, 63, 1500, 2792, 16410
[0:03:00.800000], 46, 141, 74, 1907, 2576, 16529
[0:03:00.900000], 34, 146, 64, 1974, 2629, 16257
[0:03:01], 29, 142, 48, 2068, 2843, 16474
[0:03:01.100000], 53, 156, 66, 2204, 2501, 16280
[0:03:01.200000], 40, 158, 51, 2062, 2745, 16320
[0:03:01.300000], 63, 157, 66, 2477, 2516, 16278
[0:03:01.400000], 55, 133, 46, 2670, 2442, 16277
[0:03:01.500000], 69, 138, 68, 2455, 2339, 16390
[0:03:01.600000], 42, 152, 42, 2766, 2443, 16365
[0:03:01.700000], 56, 128, 62, 2838, 2659, 16528
[0:03:01.800000], 72, 141, 55, 3143, 2314, 16336
[0:03:01.900000], 56, 155, 50, 3238, 2481, 16467
[0:03:02], 60, 130, 63, 2985, 2540, 16308
[0:03:02.100000], 67, 125, 41, 3188, 2244, 16429
[0:03:02.200000], 60, 124, 59, 3587, 2063, 16456
[0:03:02.300000], 70, 138, 55, 3534, 2371, 16360
[0:03:02.400000], 76, 136, 30, 3819, 2224, 16475
[0:03:02.500000], 96, 144, 35, 3942, 1924, 16265
[0:03:02.600000], 75, 137, 42, 3675, 2135, 16452
[0:03:02.700000], 80, 141, 36, 3639, 1756, 16514
[0:03:02.800000], 81, 138, 43, 4000, 1814, 16507
[0:03:02.900000], 84, 140, 47, 4214, 1906, 16322
[0:03:03], 82, 140, 46, 4352, 1800, 16495
[0:03:03.100000], 98, 128, 31, 4405, 1415, 16283
[0:03:03.200000], 91, 145, 27, 4105, 1534, 16499
[0:03:03.300000], 115, 133, 22, 4125, 1671, 16500
[0:03:03.400000], 115, 142, 27, 4598, 1467, 16317
[0:03:03.500000], 119, 113, 25, 4674, 1099, 16486
[0:03:03.600000], 111, 132, 29, 4390, 1109, 16432
[0:03:03.700000], 116, 116, 46, 4765, 1157, 16455
[0:03:03.800000], 125, 118, 19, 4897, 1065, 16237
[0:03:03.900000], 119, 114, 15, 4557, 1014, 16482
[0:03:04], 117, 106, 44, 4653, 856, 16259
[0:03:04.100000], 114, 115, 28, 4765, 778, 16453
[0:03:04.200000], 133, 122, 25, 4770, 894, 16332
[0:03:04.300000], 116, 117, 33, 4810, 480, 16261
[0:03:04.400000], 140, 127, 20, 4711, 746, 16351
[0:03:04.500000], 132, 111, 14, 4763, 749, 16240
[0:03:04.600000], 123, 104, 36, 4940, 614, 16309
[0:03:04.700000], 127, 107, 18, 4790, 505, 16509
[0:03:04.800000], 127, 117, 24, 5053, 287, 16296
[0:03:04.900000], 127, 123, 36, 4749, -24, 16399
[0:03:05], 149, 94, 12, 4856, 255, 16245
[0:03:05.100000], 140, 108, 33, 5227, -223, 16358
[0:03:05.200000], 133, 109, 26, 4884, 46, 16387
[0:03:05.300000], 157, 94, 15, 5019, -306, 16520
[0:03:05.400000], 134, 90, 24, 4875, -425, 16506
[0:03:05.500000], 146, 106, 0, 5203, -475, 16485
[0:03:05.600000], 153, 108, 6, 4984, -486, 16455
[0:03:05.700000], 162, 89, 24, 4702, -530, 16305
[0:03:05.800000], 139, 86, 0, 4867, -794, 16512
[0:03:05.900000], 163, 90, 5, 4948, -803, 16362
[0:03:06], 153, 87, 19, 5049, -742, 16294
[0:03:06.100000], 150, 94, 2, 4887, -1047, 16248
[0:03:06.200000], 163, 84, 19, 4556, -884, 16430
[0:03:06.300000], 177, 92, -4, 4666, -917, 16500
[0:03:06.400000], 149, 78, -1, 4873, -1236, 16465
[0:03:06.500000], 180, 84, 6, 4833, -1100, 16496
[0:03:06.600000], 161, 77, -2, 4545, -1104, 16343
[0:03:06.700000], 167, 74, 5, 4419, -1154, 16364
[0:03:06.800000], 168, 68, 9, 4305, -1329, 16336
[0:03:06.900000], 163, 68, 16, 4549, -1347, 16342
[0:03:07], 160, 70, -9, 4335, -1251, 16315
[0:03:07.100000], 177, 59, 10, 4342, -1616, 16400
[0:03:07.200000], 165, 56, 6, 4127, -1637, 16531
[0:03:07.300000], 188, 77, -6, 4015, -1943, 16508
[0:03:07.400000], 182, 53, -9, 3815, -1842, 16252
[0:03:07.500000], 169, 69, 8, 3969, -1685, 16444
[0:03:07.600000], 167, 55, -11, 3727, -2124, 16369
[0:03:07.700000], 191, 51, 4, 3769, -1942, 16402
[0:03:07.800000], 181, 46, -19, 3635, -1958, 16352
[0:03:07.900000], 178, 68, -8, 3624, -2257, 16473
[0:03:08], 181, 43, -22, 3226, -2229, 16413
[0:03:08.100000], 175, 40, -4, 3560, -2421, 16424
[0:03:08.200000], 197, 44, 0, 3246, -2240, 16240
[0:03:08.300000], 196, 43, -27, 3104, -2467, 16437
[0:03:08.400000], 192, 38, -15, 3105, -2151, 16442
[0:03:08.500000], 196, 51, -8, 2703, -2268, 16271
[0:03:08.600000], 181, 31, -2, 2695, -2678, 16531
[0:03:08.700000], 184, 39, -8, 2492, -2469, 16446
[0:03:08.800000], 187, 51, -14, 2419, -2639, 16329
[0:03:08.900000], 180, 44, -7, 2594, -2639, 16313
[0:03:09], 195, 23, -32, 2237, -2816, 16328
[0:03:09.100000], 187, 40, -32, 2303, -2760, 16240
[0:03:09.200000], 203, 43, -32, 2178, -2954, 16245
[0:03:09.300000], 198, 45, -20, 2151, -2847, 16355
[0:03:09.400000], 210, 21, -13, 1728, -2666, 16404
[0:03:09.500000], 187, 33, -27, 1935, -2658, 16499
[0:03:09.600000], 211, 28, -19, 1744, -2950, 16402
[0:03:09.700000], 189, 33, -33, 1644, -2935, 16451
[0:03:09.800000], 185, 11, -41, 1199, -2646, 16522
[0:03:09.900000], 201, 30, -31, 1190, -2679, 16376
[0:03:10], 213, 2, -31, 919, -2768, 16483
[0:03:10.100000], 213, 21, -43, 966, -3020, 16311
[0:03:10.200000], 206, -1, -29, 803, -2980, 16487
[0:03:10.300000], 207, 20, -18, 674, -2837, 16354
[0:03:10.400000], 197, 10, -39, 522, -2939, 16529
[0:03:10.500000], 186, -7, -21, 336, -2860, 16371
[0:03:10.600000], 203, 10, -33, 35, -3097, 16316
[0:03:10.700000], 202, -2, -29, 249, -3201, 16367
[0:03:10.800000], 194, 12, -46, -178, -2988, 16439
[0:03:10.900000], 194, -6, -32, -187, -3220, 16507
[0:03:11], 184, -11, -54, -378, -2836, 16385
[0:03:11.100000], 209, -8, -40, -704, -3147, 16274
[0:03:11.200000], 207, -16, -35, -750, -2805, 16430
[0:03:11.300000], 214, -7, -47, -816, -2792, 16269
[0:03:11.400000], 210, -19, -45, -1026, -2722, 16419
[0:03:11.500000], 190, -30, -46, -1013, -2793, 16445
[0:03:11.600000], 195, -10, -51, -1390, -2879, 16415
[0:03:11.700000], 188, -30, -35, -1574, -2909, 16334
[0:03:11.800000], 201, -37, -39, -1663, -2772, 16479
[0:03:11.900000], 207, -13, -50, -1756, -2735, 16270
[0:03:12], 185, -30, -35, -1767, -2857, 16392
[0:03:12.100000], 184, -18, -61, -1801, -2887, 16454
[0:03:12.200000], 203, -27, -46, -1795, -2742, 16415
[0:03:12.300000], 200, -18, -43, -2191, -2646, 16509
[0:03:12.400000], 184, -36, -65, -2160, -2763, 16274
[0:03:12.500000], 189, -39, -48, -2328, -2532, 16507
[0:03:12.600000], 191, -44, -40, -2558, -2432, 16475
[0:03:12.700000], 181, -42, -41, -2667, -2415, 16261
[0:03:12.800000], 176, -29, -68, -2577, -2517, 16490
[0:03:12.900000], 176, -37, -48, -2697, -2547, 16287
[0:03:13], 176, -40, -45, -2865, -2340, 16426
[0:03:13.100000], 191, -49, -47, -3209, -2509, 16518
[0:03:13.200000], 190, -53, -65, -2978, -2389, 16364
[0:03:13.300000], 189, -39, -68, -3476, -2241, 16331
[0:03:13.400000], 177, -45, -64, -3575, -1995, 16348
[0:03:13.500000], 190, -54, -59, -3401, -2170, 16520
[0:03:13.600000], 193, -69, -73, -3446, -1996, 16239
[0:03:13.700000], 194, -68, -78, -3598, -2075, 16482
[0:03:13.800000], 170, -58, -72, -3990, -1735, 16424
[0:03:13.900000], 167, -53, -54, -3699, -2054, 16409
[0:03:14], 179, -65, -60, -3785, -2077, 16438
[0:03:14.100000], 184, -63, -65, -3902, -1550, 16521
[0:03:14.200000], 163, -59, -68, -4009, -1461, 16331
[0:03:14.300000], 183, -85, -54, -4379, -1825, 16523
[0:03:14.400000], 166, -69, -64, -4495, -1671, 16311
[0:03:14.500000], 162, -79, -77, -4162, -1515, 16464
[0:03:14.600000], 176, -68, -72, -4235, -1598, 16403
[0:03:14.700000], 180, -72, -78, -4290, -1124, 16408
[0:03:14.800000], 162, -72, -82, -4418, -1159, 16365
[0:03:14.900000], 152, -96, -83, -4492, -1424, 16341
[0:03:15], 162, -77, -80, -4805, -1223, 16482
[0:03:15.100000], 152, -95, -64, -4660, -1241, 16432
[0:03:15.200000], 167, -87, -64, -4557, -896, 16270
[0:03:15.300000], 161, -89, -78, -4665, -690, 16368
[0:03:15.400000], 155, -92, -66, -4792, -858, 16255
[0:03:15.500000], 153, -78, -86, -4682, -736, 16371
[0:03:15.600000], 162, -83, -71, -5014, -603, 16404
[0:03:15.700000], 141, -84, -84, -4997, -294, 16422
[0:03:15.800000], 155, -92, -86, -5153, -412, 16235
[0:03:15.900000], 148, -87, -90, -5153, -219, 16395
[0:03:16], 161, -107, -96, -5083, -345, 16390
[0:03:16.100000], 131, -102, -92, -5216, -433, 16297
[0:03:16.200000], 157, -114, -95, -4987, -38, 16263
[0:03:16.300000], 127, -113, -90, -5086, 59, 16409
[0:03:16.400000], 129, -96, -79, -4958, 200, 16374
[0:03:16.500000], 138, -118, -97, -5233, 328, 16529
[0:03:16.600000], 147, -106, -72, -4744, 248, 16507
[0:03:16.700000], 123, -108, -84, -4997, 504, 16292
[0:03:16.800000], 123, -113, -100, -5178, 315, 16438
[0:03:16.900000], 135, -104, -97, -4759, 634, 16391
[0:03:17], 117, -109, -96, -4767, 478, 16462
[0:03:17.100000], 132, -106, -76, -4693, 571, 16465
[0:03:17.200000], 108, -102, -75, -4664, 945, 16410
[0:03:17.300000], 132, -112, -82, -5069, 873, 16466
[0:03:17.400000], 122, -119, -80, -4574, 724, 16400
[0:03:17.500000], 103, -133, -103, -4575, 891, 16488
[0:03:17.600000], 104, -117, -89, -4681, 1069, 16440
[0:03:17.700000], 99, -116, -91, -4503, 1330, 16237
[0:03:17.800000], 108, -139, -88, -4377, 1365, 16352
[0:03:17.900000], 95, -124, -102, -4658, 1040, 16524
[0:03:18], 95, -138, -108, -4443, 1364, 16301
[0:03:18.100000], 107, -141, -106, -4390, 1541, 16402
[0:03:18.200000], 88, -128, -110, -4555, 1597, 16522
[0:03:18.300000], 84, -117, -91, -4231, 1523, 16258
[0:03:18.400000], 102, -120, -96, -4263, 1426, 16381
[0:03:18.500000], 90, -144, -99, -4053, 1665, 16393
[0:03:18.600000], 97, -146, -99, -4156, 1565, 16374
[0:03:18.700000], 81, -123, -90, -4068, 1704, 16293
[0:03:18.800000], 90, -135, -87, -4010, 2018, 16530
[0:03:18.900000], 82, -144, -103, -3674, 1714, 16513
[0:03:19], 72, -125, -111, -3741, 1782, 16246
[0:03:19.100000], 92, -153, -106, -3615, 2276, 16345
[0:03:19.200000], 62, -153, -98, -3424, 2182, 16512
[0:03:19.300000], 73, -131, -96, -3408, 2242, 16451
[0:03:19.400000], 57, -142, -93, -3291, 2057, 16501
[0:03:19.500000], 61, -131, -91, -3270, 2422, 16360
[0:03:19.600000], 54, -139, -110, -2992, 2156, 16288
[0:03:19.700000], 52, -153, -112, -2961, 2612, 16378
[0:03:19.800000], 66, -158, -105, -2985, 2575, 16474
[0:03:19.900000], 51, -133, -117, -2759, 2686, 16312
[0:03:20], 40, -137, -91, -2684, 2628, 16258
[0:03:20.100000], 53, -153, -118, -2710, 2635, 16361
[0:03:20.200000], 39, -141, -101, -2341, 2563, 16300
[0:03:20.300000], 32, -138, -102, -2228, 2782, 16434
[0:03:20.400000], 57, -142, -107, -2294, 2845, 16466
[0:03:20.500000], 44, -157, -113, -1832, 2593, 16365
[0:03:20.600000], 51, -155, -121, -1840, 2975, 16425
[0:03:20.700000], 47, -155, -121, -1813, 2901, 16393
[0:03:20.800000], 25, -133, -94, -1728, 2718, 16261
[0:03:20.900000], 18, -142, -114, -1624, 2906, 16314
[0:03:21], 12, -147, -106, -1518, 3001, 16314
[0:03:21.100000], 39, -135, -109, -1206, 2716, 16299
[0:03:21.200000], 12, -158, -101, -1152, 3162, 16363
[0:03:21.300000], 18, -142, -110, -1077, 2711, 16476
[0:03:21.400000], 26, -155, -97, -760, 2741, 16440
[0:03:21.500000], 3, -140, -100, -662, 2874, 16372
[0:03:21.600000], 0, -146, -105, -536, 3158, 16414
[0:03:21.700000], 17, -141, -110, -593, 2772, 16317
[0:03:21.800000], 19, -161, -116, -281, 2934, 16472
[0:03:21.900000], -12, -139, -101, 92, 2814, 16413
[0:03:22], 0, -155, -102, 31, 3149, 16324
[0:03:22.100000], -2, -161, -125, 71, 3079, 16388
[0:03:22.200000], -7, -157, -119, 111, 2941, 16249
[0:03:22.300000], 5, -161, -121, 630, 2881, 16434
[0:03:22.400000], -26, -139, -125, 786, 2936, 16272
[0:03:22.500000], -18, -141, -121, 946, 2990, 16263
[0:03:22.600000], -31, -148, -128, 1114, 3154, 16247
[0:03:22.700000], -14, -149, -123, 1156, 2706, 16457
[0:03:22.800000], -21, -136, -109, 1148, 3006, 16355
[0:03:22.900000], -17, -135, -116, 1129, 3087, 16360
[0:03:23], -31, -156, -102, 1544, 2987, 16456
[0:03:23.100000], -43, -136, -112, 1560, 2863, 16480
[0:03:23.200000], -36, -133, -102, 1558, 2755, 16272
[0:03:23.300000], -50, -143, -121, 1894, 2707, 16423
[0:03:23.400000], -36, -146, -103, 1990, 2983, 16375
[0:03:23.500000], -36, -144, -126, 1893, 2818, 16523
[0:03:23.600000], -52, -159, -125, 2414, 2628, 16462
[0:03:23.700000], -53, -154, -103, 2547, 2812, 16403
[0:03:23.800000], -59, -154, -127, 2311, 2800, 16337
[0:03:23.900000], -62, -135, -108, 2372, 2660, 16475
[0:03:24], -60, -138, -103, 2783, 2725, 16338
[0:03:24.100000], -64, -144, -124, 2594, 2625, 16493
[0:03:24.200000], -61, -150, -104, 2811, 2423, 16464
[0:03:24.300000], -70, -141, -128, 3109, 2483, 16399
[0:03:24.400000], -66, -155, -129, 3393, 2238, 16241
[0:03:24.500000], -60, -152, -118, 3199, 2112, 16464
[0:03:24.600000], -86, -146, -110, 3300, 2375, 16489
[0:03:24.700000], -76, -152, -106, 3517, 2188, 16452
[0:03:24.800000], -85, -148, -130, 3697, 2248, 16490
[0:03:24.900000], -79, -123, -106, 3824, 1863, 16477
[0:03:25], -76, -144, -113, 3600, 1750, 16518
[0:03:25.100000], -82, -146, -119, 3910, 2043, 16277
[0:03:25.200000], -92, -144, -113, 4085, 1986, 16484
[0:03:25.300000], -83, -119, -129, 4272, 1710, 16521
[0:03:25.400000], -88, -132, -130, 3898, 1721, 16399
[0:03:25.500000], -91, -138, -113, 4298, 1883, 16516
[0:03:25.600000], -108, -127, -106, 4086, 1321, 16404
[0:03:25.700000], -97, -124, -124, 4253, 1622, 16341
[0:03:25.800000], -92, -128, -121, 4354, 1605, 16468
[0:03:25.900000], -117, -125, -133, 4295, 1351, 16294
[0:03:26], -98, -135, -122, 4351, 1352, 16453
[0:03:26.100000], -98, -132, -128, 4697, 1377, 16419
[0:03:26.200000], -110, -120, -129, 4849, 1218, 16250
[0:03:26.300000], -112, -109, -125, 4756, 820, 16400
[0:03:26.400000], -120, -111, -104, 4918, 720, 16379
[0:03:26.500000], -116, -123, -134, 4896, 889, 16351
[0:03:26.600000], -119, -110, -122, 5046, 1052, 16366
[0:03:26.700000], -136, -113, -129, 4727, 506, 16495
[0:03:26.800000], -115, -122, -130, 4764, 869, 16403
[0:03:26.900000], -127, -113, -125, 5025, 699, 16275
[0:03:27], -138, -119, -124, 5146, 671, 16294
[0:03:27.100000], -122, -99, -109, 4901, 251, 16523
[0:03:27.200000], -139, -126, -114, 4794, 240, 16338
[0:03:27.300000], -125, -99, -119, 4793, 461, 16458
[0:03:27.400000], -132, -119, -130, 4771, 85, 16484
[0:03:27.500000], -133, -105, -109, 4959, -9, 16450
[0:03:27.600000], -128, -101, -116, 4863, 52, 16267
[0:03:27.700000], -146, -100, -132, 5223, -345, 16442
[0:03:27.800000], -146, -115, -129, 4767, -255, 16508
[0:03:27.900000], -145, -89, -104, 4798, -234, 16471
[0:03:28], -143, -109, -102, 4815, -557, 16463
[0:03:28.100000], -156, -87, -112, 4766, -520, 16295
[0:03:28.200000], -142, -101, -111, 4686, -699, 16377
[0:03:28.300000], -149, -109, -127, 4906, -739, 16265
[0:03:28.400000], -158, -99, -129, 4693, -573, 16459
[0:03:28.500000], -154, -79, -127, 4590, -985, 16530
[0:03:28.600000], -163, -88, -118, 5043, -695, 16268
[0:03:28.700000], -151, -76, -104, 4569, -798, 16531
[0:03:28.800000], -158, -91, -113, 4585, -1103, 16464
[0:03:28.900000], -154, -90, -111, 4515, -1120, 16374
[0:03:29], -179, -75, -123, 4586, -1271, 16270
[0:03:29.100000], -179, -69, -112, 4433, -1139, 16292
[0:03:29.200000], -171, -86, -100, 4387, -1420, 16240
[0:03:29.300000], -156, -72, -126, 4470, -1164, 16506
[0:03:29.400000], -175, -88, -127, 4391, -1391, 16339
[0:03:29.500000], -160, -58, -102, 4222, -1540, 16277
[0:03:29.600000], -174, -85, -110, 4165, -1851, 16305
[0:03:29.700000], -183, -67, -102, 4129, -1597, 16502
[0:03:29.800000], -173, -60, -118, 3816, -1638, 16315
[0:03:29.900000], -167, -74, -114, 3785, -1983, 16451
[0:03:30], -182, -79, -108, 3921, -2103, 16446
[0:03:30.100000], -174, -70, -105, 3843, -1994, 16474
[0:03:30.200000], -175, -65, -120, 3533, -1871, 16472
[0:03:30.300000], -184, -58, -106, 3566, -1826, 16476
[0:03:30.400000], -188, -68, -103, 3316, -2163, 16463
[0:03:30.500000], -188, -69, -103, 3462, -2081, 16433
[0:03:30.600000], -185, -44, -105, 3071, -2007, 16371
[0:03:30.700000], -183, -49, -107, 3326, -2370, 16235
[0:03:30.800000], -189, -61, -97, 3313, -2340, 16434
[0:03:30.900000], -189, -43, -100, 3177, -2285, 16286
[0:03:31], -187, -38, -116, 2673, -2333, 16296
[0:03:31.100000], -205, -41, -93, 2727, -2342, 16309
[0:03:31.200000], -200, -50, -99, 2423, -2570, 16482
[0:03:31.300000], -207, -28, -96, 2724, -2754, 16470
[0:03:31.400000], -179, -51, -118, 2261, -2703, 16323
[0:03:31.500000], -181, -30, -111, 2165, -2616, 16374
[0:03:31.600000], -181, -19, -109, 2333, -2958, 16530
[0:03:31.700000], -210, -36, -100, 2010, -2544, 16298
[0:03:31.800000], -196, -26, -91, 1877, -2822, 16324
[0:03:31.900000], -202, -39, -117, 1930, -2953, 16300
[0:03:32], -185, -18, -96, 1495, -2970, 16402
[0:03:32.100000], -209, -11, -106, 1307, -3014, 16486
[0:03:32.200000], -196, -22, -108, 1476, -2866, 16426
[0:03:32.300000], -186, -20, -117, 1331, -2937, 16365
[0:03:32.400000], -194, -4, -110, 1303, -2786, 16454
[0:03:32.500000], -204, -13, -111, 1191, -2870, 16359
[0:03:32.600000], -204, -1, -100, 1029, -3135, 16422
[0:03:32.700000], -199, -23, -99, 734, -2775, 16274
[0:03:32.800000], -207, 4, -106, 508, -3139, 16531
[0:03:32.900000], -197, 4, -109, 610, -3205, 16356
[0:03:33], -185, -8, -101, 82, -3115, 16338
[0:03:33.100000], -209, -7, -84, 197, -2930, 16462
[0:03:33.200000], -212, -14, -81, 211, -2803, 16254
[0:03:33.300000], -201, -6, -95, 12, -2758, 16381
[0:03:33.400000], -193, -3, -107, -394, -2887, 16433
[0:03:33.500000], -209, 20, -93, -627, -2893, 16519
[0:03:33.600000], -214, -2, -98, -487, -2929, 16370
[0:03:33.700000], -206, 13, -98, -519, -3149, 16273
[0:03:33.800000], -203, 6, -102, -697, -2753, 16247
[0:03:33.900000], -205, 9, -80, -1066, -2927, 16305
[0:03:34], -208, 17, -101, -1086, -2723, 16352
[0:03:34.100000], -200, 32, -93, -1462, -3126, 16310
[0:03:34.200000], -185, 23, -91, -1551, -2682, 16316
[0:03:34.300000], -201, 32, -103, -1356, -2773, 16530
[0:03:34.400000], -188, 21, -77, -1638, -2952, 16497
[0:03:34.500000], -192, 17, -97, -1589, -3017, 16373
[0:03:34.600000], -190, 21, -96, -1889, -2974, 16524
[0:03:34.700000], -209, 44, -80, -1875, -2789, 16395
[0:03:34.800000], -198, 37, -97, -2154, -2935, 16311
[0:03:34.900000], -201, 43, -89, -2080, -2688, 16323
[0:03:35], -193, 24, -72, -2441, -2757, 16333
[0:03:35.100000], -204, 46, -80, -2659, -2782, 16268
[0:03:35.200000], -192, 52, -74, -2437, -2304, 16475
[0:03:35.300000], -200, 40, -73, -2773, -2598, 16439
[0:03:35.400000], -204, 56, -92, -2819, -2657, 16302
[0:03:35.500000], -193, 44, -93, -3066, -2532, 16411
[0:03:35.600000], -185, 59, -85, -3045, -2385, 16430
[0:03:35.700000], -177, 36, -80, -3356, -2404, 16399
[0:03:35.800000], -188, 53, -69, -3502, -2025, 16470
[0:03:35.900000], -196, 54, -83, -3326, -2143, 16433
[0:03:36], -193, 62, -72, -3701, -2234, 16507
[0:03:36.100000], -182, 54, -86, -3407, -1864, 16408
[0:03:36.200000], -173, 67, -74, -3746, -1809, 16284
[0:03:36.300000], -170, 51, -90, -3906, -1941, 16279
[0:03:36.400000], -185, 77, -68, -4058, -1899, 16316
[0:03:36.500000], -174, 66, -72, -4119, -1644, 16350
[0:03:36.600000], -170, 82, -83, -4122, -1891, 16452
[0:03:36.700000], -187, 69, -63, -4410, -1698, 16287
[0:03:36.800000], -165, 62, -70, -4193, -1682, 16408
[0:03:36.900000], -188, 84, -75, -4232, -1368, 16510
[0:03:37], -162, 62, -65, -4470, -1210, 16286
[0:03:37.100000], -156, 65, -77, -4445, -1264, 16240
[0:03:37.200000], -173, 81, -53, -4551, -1465, 16447
[0:03:37.300000], -167, 73, -73, -4538, -1370, 16338
[0:03:37.400000], -176, 86, -65, -4456, -1318, 16312
[0:03:37.500000], -151, 92, -54, -4753, -1308, 16490
[0:03:37.600000], -156, 77, -57, -4676, -791, 16435
[0:03:37.700000], -165, 87, -74, -4899, -731, 16280
[0:03:37.800000], -170, 78, -78, -4933, -748, 16463
[0:03:37.900000], -165, 82, -59, -5034, -683, 16284
[0:03:38], -148, 94, -46, -4958, -447, 16247
[0:03:38.100000], -154, 102, -64, -4832, -349, 16387
[0:03:38.200000], -166, 88, -68, -4879, -664, 16339
[0:03:38.300000], -165, 83, -71, -5121, -603, 16391
[0:03:38.400000], -143, 102, -70, -5154, -80, 16363
[0:03:38.500000], -133, 100, -72, -5066, -29, 16290
[0:03:38.600000], -154, 111, -52, -4876, -136, 16462
[0:03:38.700000], -137, 99, -45, -5092, -91, 16275
[0:03:38.800000], -149, 103, -40, -5109, -120, 16394
[0:03:38.900000], -131, 116, -47, -5246, -156, 16326
[0:03:39], -144, 108, -64, -5083, 89, 16389
[0:03:39.100000], -129, 110, -41, -4902, 290, 16418
[0:03:39.200000], -127, 103, -54, -5059, 188, 16356
[0:03:39.300000], -116, 105, -53, -5047, 418, 16302
[0:03:39.400000], -124, 123, -60, -4918, 541, 16476
[0:03:39.500000], -130, 118, -44, -5136, 503, 16338
[0:03:39.600000], -125, 119, -46, -4684, 761, 16509
[0:03:39.700000], -135, 131, -34, -4989, 975, 16346
[0:03:39.800000], -132, 133, -42, -4689, 690, 16364
[0:03:39.900000], -102, 125, -57, -4886, 860, 16501
[0:03:40], -109, 107, -44, -4807, 994, 16235
[0:03:40.100000], -109, 119, -34, -4466, 916, 16444
[0:03:40.200000], -104, 113, -54, -4554, 1214, 16518
[0:03:40.300000], -99, 115, -32, -4527, 1390, 16407
[0:03:40.400000], -112, 138, -52, -4272, 1143, 16493
[0:03:40.500000], -97, 140, -30, -4242, 1176, 16506
[0:03:40.600000], -104, 117, -50, -4130, 1473, 16315
[0:03:40.700000], -91, 126, -35, -4151, 1412, 16364
[0:03:40.800000], -91, 124, -32, -4051, 1669, 16503
[0:03:40.900000], -104, 128, -22, -4228, 1527, 16481
[0:03:41], -104, 145, -40, -3978, 1630, 16382
[0:03:41.100000], -92, 123, -24, -3853, 1601, 16376
[0:03:41.200000], -77, 132, -27, -3902, 1972, 16392
[0:03:41.300000], -99, 125, -20, -3661, 1773, 16492
[0:03:41.400000], -92, 142, -35, -3678, 1861, 16495
[0:03:41.500000], -92, 131, -41, -3825, 2022, 16373
[0:03:41.600000], -63, 149, -29, -3652, 2155, 16491
[0:03:41.700000], -63, 130, -29, -3455, 2410, 16386
[0:03:41.800000], -85, 131, -37, -3336, 2190, 16265
[0:03:41.900000], -77, 126, -34, -3054, 2400, 16286
[0:03:42], -64, 147, -33, -3084, 2157, 16381
[0:03:42.100000], -70, 153, -31, -2852, 2443, 16268
[0:03:42.200000], -67, 147, -23, -2994, 2323, 16317
[0:03:42.300000], -62, 158, -7, -2809, 2269, 16368
[0:03:42.400000], -59, 129, -19, -2506, 2583, 16383
[0:03:42.500000], -64, 147, -5, -2711, 2737, 16391
[0:03:42.600000], -62, 149, -21, -2173, 2436, 16373
[0:03:42.700000], -34, 150, -19, -2291, 2636, 16264
[0:03:42.800000], -32, 138, -27, -2358, 2646, 16254
[0:03:42.900000], -46, 156, -16, -1874, 2763, 16294
[0:03:43], -41, 146, -1, -1933, 2844, 16358
[0:03:43.100000], -45, 162, -7, -1854, 2919, 16455
[0:03:43.200000], -43, 159, -26, -1536, 2990, 16402
[0:03:43.300000], -31, 158, -3, -1436, 2845, 16239
[0:03:43.400000], -20, 145, -21, -1476, 2993, 16443
[0:03:43.500000], -35, 147, -6, -1312, 2872, 16259
[0:03:43.600000], -29, 141, -2, -1093, 2979, 16410
[0:03:43.700000], -8, 163, -20, -1107, 3058, 16344
[0:03:43.800000], -17, 139, -14, -611, 2971, 16490
[0:03:43.900000], -16, 149, -10, -944, 2840, 16502
[0:03:44], -19, 154, -3, -650, 3215, 16262
[0:03:44.100000], -2, 143, -4, -604, 3227, 16324
[0:03:44.200000], -18, 138, -3, -176, 2854, 16394
[0:03:44.300000], 0, 139, 3, -149, 3243, 16407
[0:03:44.400000], 12, 145, -9, 0, 2847, 16365
[0:03:44.500000], -1, 135, -5, -86, 3140, 16450
[0:03:44.600000], 9, 158, -1, 511, 2945, 16404
[0:03:44.700000], 16, 141, 17, 659, 2973, 16419
[0:03:44.800000], 23, 141, 2, 657, 2966, 16336
[0:03:44.900000], 2, 161, -5, 566, 2862, 16346
[0:03:45], 11, 164, 2, 1054, 2882, 16488
[0:03:45.100000], 14, 141, 7, 896, 2902, 16390
[0:03:45.200000], 29, 143, 16, 1018, 3148, 16496
[0:03:45.300000], 17, 153, 19, 1426, 2998, 16466
[0:03:45.400000], 34, 156, -3, 1138, 2756, 16416
[0:03:45.500000], 31, 151, -1, 1335, 3099, 16398
[0:03:45.600000], 46, 159, 23, 1556, 2965, 16364
[0:03:45.700000], 33, 156, 21, 1904, 2968, 16375
[0:03:45.800000], 49, 152, 22, 1702, 2669, 16533
[0:03:45.900000], 31, 154, 18, 2044, 2911, 16490
[0:03:46], 37, 154, 29, 2290, 2489, 16484
[0:03:46.100000], 40, 131, 26, 2358, 2602, 16446
[0:03:46.200000], 36, 152, 22, 2424, 2540, 16404
[0:03:46.300000], 64, 142, 30, 2734, 2392, 16378
[0:03:46.400000], 69, 156, 19, 2435, 2497, 16485
[0:03:46.500000], 50, 149, 25, 3015, 2703, 16503
[0:03:46.600000], 50, 134, 12, 2788, 2614, 16283
[0:03:46.700000], 73, 142, 33, 3180, 2564, 16509
[0:03:46.800000], 56, 135, 33, 3305, 2297, 16392
[0:03:46.900000], 72, 138, 19, 3140, 2295, 16525
[0:03:47], 62, 139, 40, 3383, 2461, 16524
[0:03:47.100000], 60, 130, 12, 3267, 2222, 16506
[0:03:47.200000], 82, 138, 31, 3679, 2016, 16524
[0:03:47.300000], 81, 125, 38, 3543, 2098, 16270
[0:03:47.400000], 93, 147, 35, 3867, 1817, 16481
[0:03:47.500000], 69, 124, 21, 3868, 2168, 16367
[0:03:47.600000], 89, 135, 25, 3659, 1637, 16387
[0:03:47.700000], 100, 119, 46, 4169, 1661, 16516
[0:03:47.800000], 97, 134, 41, 4270, 1543, 16292
[0:03:47.900000], 93, 130, 20, 4044, 1804, 16389
[0:03:48], 89, 138, 31, 4058, 1628, 16422
[0:03:48.100000], 107, 126, 37, 4461, 1629, 16494
[0:03:48.200000], 115, 127, 35, 4338, 1604, 16453
[0:03:48.300000], 105, 119, 34, 4436, 1255, 16278
[0:03:48.400000], 93, 117, 48, 4462, 1321, 16286
[0:03:48.500000], 122, 114, 55, 4582, 1308, 16365
[0:03:48.600000], 122, 114, 52, 4633, 936, 16254
[0:03:48.700000], 120, 117, 43, 4673, 1083, 16486
[0:03:48.800000], 128, 126, 52, 4706, 1069, 16403
[0:03:48.900000], 132, 125, 36, 4617, 683, 16317
[0:03:49], 121, 120, 35, 4938, 796, 16359
[0:03:49.100000], 114, 116, 53, 4623, 858, 16250
[0:03:49.200000], 139, 117, 53, 5026, 700, 16247
[0:03:49.300000], 132, 125, 45, 4848, 448, 16388
[0:03:49.400000], 141, 113, 55, 4998, 506, 16456
[0:03:49.500000], 125, 124, 64, 4761, 590, 16321
[0:03:49.600000], 140, 111, 38, 5036, 254, 16302
[0:03:49.700000], 132, 101, 54, 4765, 175, 16515
[0:03:49.800000], 152, 101, 58, 4836, 152, 16440
[0:03:49.900000], 150, 113, 56, 4767, -133, 16416
[0:03:50], 139, 94, 63, 5180, -66, 16416
[0:03:50.100000], 131, 99, 56, 5240, -319, 16444
[0:03:50.200000], 147, 90, 68, 4991, 87, 16432
[0:03:50.300000], 149, 114, 54, 5209, -328, 16387
[0:03:50.400000], 154, 88, 58, 4765, -259, 16461
[0:03:50.500000], 136, 94, 55, 4721, -373, 16328
[0:03:50.600000], 138, 108, 47, 4975, -536, 16304
[0:03:50.700000], 156, 97, 51, 4889, -780, 16385
[0:03:50.800000], 155, 86, 69, 4661, -872, 16245
[0:03:50.900000], 166, 97, 49, 4650, -774, 16249
[0:03:51], 157, 82, 58, 4928, -633, 16282
[0:03:51.100000], 156, 97, 73, 4629, -1055, 16415
[0:03:51.200000], 167, 89, 75, 4704, -978, 16476
[0:03:51.300000], 159, 80, 80, 4628, -846, 16357
[0:03:51.400000], 163, 82, 81, 4803, -1086, 16432
[0:03:51.500000], 172, 78, 60, 4428, -1130, 16480
[0:03:51.600000], 158, 71, 71, 4584, -1137, 16257
[0:03:51.700000], 159, 75, 58, 4434, -1577, 16451
[0:03:51.800000], 164, 88, 70, 4318, -1339, 16479
[0:03:51.900000], 160, 79, 80, 4189, -1613, 16405
[0:03:52], 166, 70, 60, 4332, -1764, 16442
[0:03:52.100000], 181, 77, 87, 4393, -1447, 16410
[0:03:52.200000], 180, 81, 67, 4104, -1807, 16413
[0:03:52.300000], 176, 58, 79, 3799, -1577, 16492
[0:03:52.400000], 185, 64, 73, 3776, -1898, 16278
[0:03:52.500000], 183, 70, 77, 3592, -1792, 16405
[0:03:52.600000], 179, 63, 70, 3877, -2052, 16266
[0:03:52.700000], 178, 68, 79, 3500, -2211, 16282
[0:03:52.800000], 178, 68, 88, 3506, -2126, 16254
[0:03:52.900000], 196, 56, 67, 3515, -1968, 16292
[0:03:53], 201, 55, 66, 3227, -2178, 16305
[0:03:53.100000], 194, 52, 88, 3414, -2463, 16383
[0:03:53.200000], 182, 43, 84, 3132, -2294, 16411
[0:03:53.300000], 191, 43, 79, 3265, -2624, 16338
[0:03:53.400000], 194, 37, 83, 2944, -2490, 16471
[0:03:53.500000], 199, 29, 74, 3004, -2326, 16520
[0:03:53.600000], 206, 49, 84, 2694, -2412, 16339
[0:03:53.700000], 207, 47, 73, 2565, -2628, 16457
[0:03:53.800000], 205, 30, 89, 2292, -2762, 16308
[0:03:53.900000], 193, 25, 77, 2561, -2744, 16298
[0:03:54], 200, 48, 87, 2389, -2946, 16415
[0:03:54.100000], 198, 34, 98, 2246, -2910, 16367
[0:03:54.200000], 201, 17, 82, 1772, -2730, 16397
[0:03:54.300000], 205, 37, 89, 1773, -3007, 16486
[0:03:54.400000], 205, 15, 91, 1433, -2629, 16459
[0:03:54.500000], 199, 11, 81, 1492, -2891, 16398
[0:03:54.600000], 210, 31, 100, 1435, -3076, 16406
[0:03:54.700000], 198, 31, 79, 1474, -2776, 16367
[0:03:54.800000], 201, 23, 98, 892, -2734, 16375
[0:03:54.900000], 197, 3, 77, 943, -2876, 16250
[0:03:55], 185, 6, 85, 661, -2967, 16327
[0:03:55.100000], 202, 3, 88, 597, -3050, 16341
[0:03:55.200000], 194, 23, 102, 619, -2895, 16298
[0:03:55.300000], 185, 5, 87, 487, -3026, 16460
[0:03:55.400000], 211, 17, 87, 480, -2884, 16261
[0:03:55.500000], 184, 16, 81, 123, -2843, 16495
[0:03:55.600000], 189, 14, 85, -51, -2785, 16387
[0:03:55.700000], 194, 3, 110, 103, -3138, 16447
[0:03:55.800000], 207, -6, 92, -38, -3108, 16506
[0:03:55.900000], 200, 5, 87, -225, -3082, 16371
[0:03:56], 189, -2, 109, -655, -2802, 16275
[0:03:56.100000], 208, -19, 98, -705, -3002, 16367
[0:03:56.200000], 204, -2, 86, -736, -3173, 16323
[0:03:56.300000], 195, -14, 100, -735, -2801, 16321
[0:03:56.400000], 205, -10, 109, -1056, -3118, 16270
[0:03:56.500000], 208, -9, 92, -1071, -2958, 16274
[0:03:56.600000], 201, -15, 111, -1430, -2833, 16455
[0:03:56.700000], 201, -13, 108, -1354, -2946, 16317
[0:03:56.800000], 204, -39, 89, -1503, -2991, 16273
