time,roll,pitch,yaw,qw,qx,qy,qz,linear_accel_x,linear_accel_y,linear_accel_z,jerk_x,jerk_y,jerk_z,ekf_jerk_x,ekf_jerk_y,ekf_jerk_z
[0:00:00],10.6148,0.584585,-1.28206e-05,0.995917,0.0924787,0.0050785,-0.00047169,0.0146583,0.0106879,0.0188621,0,0,0,0,0,0
[0:00:00.100000],10.0299,0.597261,-2.33233e-05,0.996284,0.0874039,0.00519146,-0.00045565,0.0179923,0.00254333,0.0120288,0,0,0,0,0,0
[0:00:00.200000],10.5817,0.807562,-5.25456e-05,0.995838,0.0921985,0.00701634,-0.00065006,0.0163524,0.00369637,0.0177715,0,0,0,0,0,0
[0:00:00.300000],10.8327,0.214864,-2.46162e-05,0.995657,0.0943811,0.00186642,-0.000177139,0.0188258,0.00468515,0.0145883,0,0,0,0,0,0
[0:00:00.400000],10.4396,0.223006,-5.62494e-05,0.995974,0.0909655,0.00193775,-0.000177474,0.0166485,0.000808895,0.0166799,0,0,0,0,0,0
[0:00:00.500000],10.8823,-0.769587,-3.17793e-05,0.995596,0.0948094,-0.00668482,0.000636309,0.0222131,0.00183767,0.014586,0.0149319,-0.00903019,-0.00429329,0.00291888,-0.00176522,-0.000839252
[0:00:00.600000],11.0011,-0.288235,-3.2779e-05,0.995516,0.0958435,-0.00250347,0.000240734,0.020421,0.00369278,0.0222917,0.0175106,-0.0082828,-0.01904,0.0055057,-0.00292066,-0.00406587
[0:00:00.700000],10.3197,-0.624747,-5.49483e-05,0.996057,0.0899223,-0.00542921,0.000489659,0.0248629,-0.00554612,0.00969923,0.00522359,-0.00664662,-0.0119372,0.00545922,-0.0035346,-0.00536286
[0:00:00.800000],10.3583,-1.10568,-2.76327e-05,0.995994,0.0902552,-0.00960818,0.000870433,0.0247098,-8.31187e-05,0.00866467,0.00668566,0.00633701,-0.0153133,0.00565049,-0.00199505,-0.0069147
[0:00:00.900000],10.0672,-1.2835,-6.98802e-05,0.996204,0.0877243,-0.0111559,0.000981762,0.0248418,0.000105023,0.0133822,0.00559835,0.00936045,-0.00685203,0.00564269,-0.000295946,-0.00690532
[0:00:01],10.5733,-1.45152,-5.66607e-05,0.99579,0.0921202,-0.0126112,0.00116616,0.0244126,0.00278288,0.00874591,0.0163572,0.00969667,0.00975865,0.0071966,0.00115326,-0.00448858
[0:00:01.100000],10.3052,-1.42706,-5.87552e-05,0.996005,0.0897911,-0.0124014,0.00111749,0.022642,-0.00104165,0.015457,0.0237634,-0.00280027,0.0180733,0.00954331,0.000593238,-0.00129266
[0:00:01.200000],10.8226,-1.86267,-6.6723e-05,0.995535,0.0942813,-0.0161798,0.00153171,0.033536,0.00635962,0.00957376,0.0162367,-0.0121254,0.00577566,0.0104747,-0.00117664,-0.000309058
[0:00:01.300000],10.7602,-2.2268,-7.21316e-05,0.99553,0.0937335,-0.0193434,0.00182063,0.0313353,-0.00180525,0.0163686,0.00956627,-0.0127178,-0.00953921,0.01035,-0.00276129,-0.00157639
[0:00:01.400000],10.4496,-2.45893,-4.86966e-05,0.995739,0.0910318,-0.0213649,0.00195278,0.0352218,-0.00371422,0.0173658,0.0135447,-0.00671947,-0.000207121,0.0107842,-0.0032993,-0.00139028
[0:00:01.500000],10.2028,-2.53391,-5.91016e-05,0.995919,0.0888858,-0.0220205,0.00196482,0.0327547,-0.00575593,0.00841117,0.00453563,-0.00117237,-0.0111229,0.00994135,-0.0030124,-0.00270311
[0:00:01.600000],10.588,-2.18806,-4.48558e-05,0.995676,0.0922381,-0.0190095,0.00176062,0.0259074,0.00217944,0.0112696,0.0166082,-0.0143656,0.0018628,0.0108355,-0.00453505,-0.00209075
[0:00:01.700000],10.6038,-2.18459,-4.12245e-05,0.995664,0.0923756,-0.0189792,0.00176049,0.0389074,-0.00456192,0.00887787,0.0302281,-0.0130989,0.0140185,0.0134251,-0.00567864,6.04329e-05
[0:00:01.800000],10.6679,-2.25193,-4.5325e-05,0.995601,0.0929317,-0.0195632,0.00182568,0.0433481,-0.00174683,0.0209697,0.0159942,-0.0348863,0.0171084,0.0137671,-0.0095662,0.00232952
[0:00:01.900000],10.641,-2.25199,-6.52039e-05,0.995623,0.0926981,-0.0195641,0.00182096,0.0376098,-0.00995287,0.00904197,0.0418456,-0.0224448,0.0140038,0.0174951,-0.0112761,0.00387956
[0:00:02],10.2282,-2.51062,-5.97014e-05,0.995904,0.0891071,-0.0218178,0.0019516,0.0522037,-0.0171207,0.0231805,0.0411277,0.00230059,0.000585913,0.0206271,-0.00947685,0.00344306
[0:00:02.100000],10.2939,-2.24303,-4.22141e-05,0.9959,0.0896829,-0.0194917,0.0017549,0.0432592,-0.00937267,0.0191055,0.0474012,0.0192622,0.00449983,0.0241704,-0.00567349,0.00358292
[0:00:02.200000],10.3342,-2.01908,-4.23815e-05,0.995905,0.0900362,-0.0175452,0.00158583,0.0488131,-0.0132637,0.0091399,0.0838347,0.00189505,0.00132493,0.0320581,-0.00467292,0.00328441
[0:00:02.300000],10.5179,-2.25078,-7.12917e-05,0.995722,0.0916288,-0.0195555,0.00179892,0.0786466,0.00460844,0.0180464,0.0869007,-0.00185623,-0.00582643,0.0393026,-0.00430085,0.0020809
[0:00:02.400000],10.739,-2.15941,-4.09702e-05,0.995559,0.0935509,-0.0187584,0.00176233,0.0650423,-0.00566268,0.0183307,0.0795009,-0.0293398,-0.00961677,0.0446094,-0.00760641,0.000536612
[0:00:02.500000],10.7658,-2.06806,-5.96296e-05,0.995551,0.0937843,-0.0179645,0.0016918,0.0857396,-0.0198644,0.0206792,0.0699582,-0.045284,-0.00480953,0.0479544,-0.0125782,-0.00016885
[0:00:02.600000],10.6924,-2.00934,-3.99518e-05,0.99562,0.0931478,-0.0174555,0.00163275,0.0943932,-0.024595,0.0116774,0.0630719,-0.0316155,0.00069867,0.0499486,-0.0150895,-5.44137e-05
[0:00:02.700000],10.7474,-1.61878,-4.54416e-05,0.995629,0.093631,-0.0140623,0.00132205,0.0868631,-0.0147755,0.00895804,0.101829,-0.0288686,0.00161705,0.0567905,-0.0169067,0.000166016
[0:00:02.800000],10.8637,-1.11586,-4.74601e-05,0.995586,0.0946456,-0.00969268,0.000921021,0.104549,-0.0266336,0.0221936,0.119378,-0.0361292,0.0252268,0.0650429,-0.0194412,0.00347035
[0:00:02.900000],11.1166,-0.558954,-5.84629e-05,0.99541,0.0968455,-0.0048543,0.000471773,0.11323,-0.0216548,0.0134346,0.131761,-0.0448106,0.0259036,0.0738385,-0.0227857,0.00642781
[0:00:03],11.3255,-0.117289,0.248675,0.995241,0.0986631,-0.000804366,0.00226021,0.142301,-0.0263394,0.027222,0.135397,-0.0439251,0.0138808,0.081953,-0.0255723,0.00741026
[0:00:03.100000],11.5753,0.289545,0.432982,0.995017,0.100819,0.00289445,0.00350404,0.155322,-0.0446483,0.0223607,0.120495,-0.0541382,-0.00174906,0.0870332,-0.0293375,0.00620299
[0:00:03.200000],11.6653,0.793837,0.730855,0.994907,0.101562,0.00753854,0.00564022,0.142334,-0.0536768,0.0245895,0.0944405,-0.0347571,-0.00753096,0.0880095,-0.0300518,0.00439286
[0:00:03.300000],11.9434,1.20729,1.11537,0.994606,0.103912,0.0114887,0.00858314,0.179273,-0.0341102,0.0143526,0.121615,-0.0576001,-0.00439458,0.0924385,-0.0336825,0.00323473
[0:00:03.400000],12.2049,1.54861,1.46939,0.994303,0.106104,0.014797,0.0113112,0.16765,-0.0440967,0.0180106,0.13867,-0.0665648,-0.00664381,0.0985313,-0.038016,0.00193285
[0:00:03.500000],12.5998,2.36696,1.78062,0.993789,0.109364,0.0222285,0.0131739,0.193948,-0.0659168,0.0254568,0.166326,-0.063889,0.00469226,0.107466,-0.0414257,0.0022965
[0:00:03.600000],12.8431,3.12559,2.02089,0.99338,0.111293,0.0290649,0.0144668,0.21523,-0.0606366,0.0223715,0.197005,-0.0745321,0.0171671,0.119265,-0.0457885,0.00425619
[0:00:03.700000],13.1524,3.9297,2.38867,0.992828,0.113709,0.0364341,0.0167674,0.242544,-0.0863221,0.0200291,0.170961,-0.0733608,0.0331797,0.126078,-0.049422,0.00806775
[0:00:03.800000],13.5012,4.7273,2.64724,0.992195,0.116457,0.043652,0.0180722,0.241654,-0.0781939,0.0262957,0.184333,-0.0576482,0.0340829,0.133755,-0.0505061,0.011496
[0:00:03.900000],13.872,5.49746,3.04346,0.991469,0.119301,0.0507846,0.0205412,0.264014,-0.0752004,0.0270302,0.154772,-0.083217,0.0377031,0.136524,-0.0548167,0.0149495
[0:00:04],14.2594,6.35079,3.42902,0.990632,0.122211,0.0586396,0.0227694,0.292561,-0.0939853,0.0405922,0.146196,-0.09629,0.0296351,0.137799,-0.0602819,0.0168847
[0:00:04.100000],14.6674,7.11627,3.73559,0.989766,0.125314,0.0656645,0.0243458,0.286786,-0.106423,0.0396022,0.148872,-0.0822458,0.0299435,0.139258,-0.0631762,0.0186056
[0:00:04.200000],15.1737,7.85024,4.11104,0.988735,0.129186,0.0725245,0.0264377,0.319385,-0.120014,0.0389524,0.174956,-0.076476,0.0341045,0.143962,-0.0649288,0.020648
[0:00:04.300000],15.6011,8.64864,4.45445,0.987704,0.132318,0.0798967,0.0281663,0.327133,-0.126357,0.0389316,0.165517,-0.0623519,0.0388263,0.146803,-0.0645892,0.0230434
[0:00:04.400000],16.0015,9.39762,4.79094,0.986679,0.135192,0.0868358,0.0298581,0.341691,-0.115107,0.0428443,0.196678,-0.0433261,0.0409033,0.153375,-0.0617873,0.0253969
[0:00:04.500000],16.5333,10.2483,5.19109,0.985353,0.139041,0.0947675,0.0318066,0.369809,-0.125984,0.0618122,0.211036,-0.0513118,0.0493814,0.160973,-0.0604069,0.0285575
[0:00:04.600000],16.9369,10.9894,5.5279,0.984215,0.141835,0.101654,0.0333912,0.39418,-0.135285,0.0596189,0.19387,-0.0857941,0.0492973,0.165308,-0.0637523,0.0312905
[0:00:04.700000],17.4727,11.8363,5.89304,0.982764,0.145624,0.109528,0.0348963,0.401588,-0.156177,0.058957,0.184211,-0.137436,0.0564081,0.167799,-0.073462,0.0346003
[0:00:04.800000],17.9755,12.5656,6.22315,0.981399,0.149172,0.116346,0.0362209,0.433865,-0.151749,0.0657775,0.159572,-0.147737,0.0711346,0.166715,-0.0832495,0.0394146
[0:00:04.900000],18.5266,13.3925,6.66766,0.979789,0.152894,0.12417,0.0382653,0.436088,-0.170928,0.0730706,0.158759,-0.106955,0.0692978,0.165667,-0.0863733,0.0433525
[0:00:05],19.1735,14.0851,7.18304,0.978083,0.15737,0.130993,0.0409233,0.456376,-0.195333,0.0863495,0.178124,-0.0950134,0.0882459,0.167308,-0.0875118,0.0492683
[0:00:05.100000],19.7009,14.9043,7.6819,0.976359,0.160674,0.138843,0.043304,0.467471,-0.203279,0.0976312,0.163023,-0.0994525,0.0789172,0.166743,-0.0890853,0.0531753
[0:00:05.200000],20.3149,15.6268,8.23038,0.974526,0.164646,0.145989,0.0460689,0.494468,-0.193425,0.101784,0.163103,-0.0885437,0.0747885,0.166264,-0.0890139,0.0560233
[0:00:05.300000],20.8442,16.434,8.75574,0.972671,0.167772,0.1538,0.0485256,0.514539,-0.201897,0.0968882,0.163416,-0.0884143,0.0663792,0.165889,-0.0889349,0.057388
[0:00:05.400000],21.408,17.1203,9.25116,0.970851,0.171256,0.160571,0.0508028,0.521614,-0.231046,0.118218,0.1326,-0.117467,0.0691134,0.161502,-0.0926947,0.0589331
[0:00:05.500000],22.0918,17.8457,9.76098,0.968743,0.175622,0.167758,0.0528829,0.521909,-0.23966,0.119678,0.10662,-0.128489,0.0698719,0.15427,-0.0974115,0.0603745
[0:00:05.600000],22.8009,18.5495,10.2545,0.966565,0.180164,0.174766,0.0547312,0.557076,-0.2371,0.131861,0.0887039,-0.117631,0.064716,0.14563,-0.100076,0.0609466
[0:00:05.700000],23.5084,19.1875,10.8582,0.964355,0.184508,0.181413,0.0575373,0.550462,-0.26828,0.130732,0.0980174,-0.0827705,0.0599902,0.139356,-0.0977955,0.0608206
[0:00:05.800000],24.1821,19.8579,11.3776,0.962143,0.188582,0.188197,0.0595375,0.562162,-0.26762,0.142266,0.117978,-0.075453,0.0515529,0.136539,-0.0948513,0.0595993
[0:00:05.900000],24.8188,20.4657,11.9154,0.960011,0.192309,0.194484,0.0617896,0.571632,-0.265952,0.140884,0.140447,-0.0947793,0.0591373,0.137054,-0.0948419,0.0595385
[0:00:06],25.505,21.1405,12.5426,0.957605,0.196134,0.201519,0.0644868,0.590758,-0.285113,0.150831,0.155791,-0.123708,0.078073,0.139523,-0.0986457,0.0619808
[0:00:06.100000],26.2586,21.8563,13.1343,0.954989,0.200434,0.208888,0.0665823,0.607022,-0.29443,0.163891,0.16662,-0.136722,0.0964193,0.143094,-0.103663,0.0665189
[0:00:06.200000],26.9723,22.4914,13.7652,0.952472,0.204342,0.215651,0.0691451,0.627906,-0.312148,0.168159,0.165878,-0.146605,0.118092,0.146096,-0.109322,0.0733149
[0:00:06.300000],27.7441,23.1124,14.2774,0.949889,0.208887,0.222136,0.070549,0.64455,-0.32723,0.177593,0.143731,-0.121961,0.121113,0.145784,-0.110987,0.0796135
[0:00:06.400000],28.6212,23.6696,14.8891,0.947088,0.214119,0.228363,0.0726158,0.649448,-0.348413,0.201911,0.122783,-0.120564,0.113049,0.142753,-0.112249,0.0840195
[0:00:06.500000],29.3662,24.2485,15.5223,0.944433,0.218095,0.234743,0.0749755,0.657094,-0.343758,0.203568,0.103523,-0.114081,0.100306,0.137584,-0.112491,0.0861657
[0:00:06.600000],30.1488,24.9006,16.187,0.941527,0.222102,0.241818,0.077242,0.689355,-0.349143,0.222201,0.107769,-0.10153,0.0953674,0.133655,-0.111046,0.0873783
[0:00:06.700000],31.0311,25.3638,16.8571,0.93865,0.227132,0.247468,0.0797037,0.677449,-0.37307,0.216746,0.128987,-0.100105,0.0833704,0.13304,-0.109605,0.0868501
[0:00:06.800000],31.9563,25.8975,17.6003,0.935472,0.232139,0.25389,0.0823895,0.699275,-0.395345,0.23517,0.133356,-0.132473,0.0932157,0.133081,-0.112618,0.0876889
[0:00:06.900000],32.8492,26.5019,18.3658,0.932178,0.236595,0.260927,0.0850258,0.70758,-0.384882,0.239512,0.1261,-0.127603,0.11165,0.132162,-0.114593,0.0908464
[0:00:07],33.7905,27.0286,19.0477,0.928905,0.241669,0.267233,0.0869629,0.732756,-0.403108,0.257313,0.123252,-0.121631,0.120192,0.130987,-0.11552,0.0947135
[0:00:07.100000],34.7649,27.4521,19.7374,0.925657,0.247096,0.272791,0.0890646,0.740243,-0.419192,0.266181,0.124276,-0.105017,0.13497,0.130103,-0.114136,0.100018
[0:00:07.200000],35.7327,27.9109,20.5081,0.922249,0.252111,0.278829,0.0916304,0.742512,-0.442021,0.28322,0.0742295,-0.108512,0.121353,0.12274,-0.113395,0.10283
[0:00:07.300000],36.7311,28.4271,21.3829,0.918544,0.256885,0.285604,0.0946719,0.756863,-0.427548,0.289685,0.0518219,-0.115127,0.126941,0.113395,-0.113623,0.106007
[0:00:07.400000],37.7679,28.9309,22.2472,0.914718,0.261893,0.292326,0.0974396,0.763418,-0.461255,0.307655,0.0666411,-0.0997676,0.115577,0.107234,-0.111797,0.107268
[0:00:07.500000],38.72,29.3113,23.0257,0.911286,0.266609,0.297864,0.100003,0.763724,-0.45363,0.317285,0.0787008,-0.125193,0.126053,0.103474,-0.113563,0.109744
[0:00:07.600000],39.7476,29.8258,23.7982,0.907433,0.271526,0.304507,0.101786,0.766651,-0.474694,0.327345,0.0681814,-0.153941,0.133654,0.0988235,-0.118883,0.112894
[0:00:07.700000],40.8471,30.317,24.5564,0.903402,0.276988,0.311024,0.10321,0.78347,-0.492277,0.34435,0.0717529,-0.148134,0.13333,0.0952563,-0.122738,0.115587
[0:00:07.800000],41.8111,30.7143,25.254,0.89984,0.281672,0.316585,0.104722,0.804825,-0.506699,0.354064,0.0970221,-0.120204,0.133555,0.095489,-0.122404,0.117955
[0:00:07.900000],42.9876,31.1392,26.0718,0.895555,0.287517,0.322868,0.106381,0.78775,-0.52532,0.375832,0.11285,-0.131723,0.14731,0.0977767,-0.123632,0.121823
[0:00:08],44.1442,31.5517,26.9941,0.891177,0.292819,0.329338,0.10882,0.802565,-0.528766,0.385176,0.116157,-0.118111,0.17323,0.100199,-0.122904,0.128597
[0:00:08.100000],45.2895,31.8613,27.7576,0.887063,0.298651,0.334671,0.110304,0.825777,-0.527747,0.394031,0.0788351,-0.12223,0.171885,0.0973836,-0.122816,0.134302
[0:00:08.200000],46.2768,32.1767,28.4696,0.883352,0.303303,0.339789,0.11173,0.834289,-0.557516,0.418682,0.0455251,-0.117204,0.130513,0.0905499,-0.122076,0.133802
[0:00:08.300000],47.4436,32.4923,29.2374,0.879064,0.30908,0.345259,0.112953,0.834306,-0.570311,0.433433,-0.00522516,-0.103764,0.0433975,0.0779292,-0.119663,0.121889
[0:00:08.400000],48.6017,32.7703,29.9829,0.874813,0.314867,0.35042,0.114067,0.827588,-0.577681,0.444662,-0.110735,-0.066042,-0.0354398,0.0530681,-0.112597,0.101157
[0:00:08.500000],47.3625,31.324,29.5593,0.88044,0.310864,0.337651,0.120126,0.801187,-0.577857,0.419266,-0.158704,-0.0252542,-0.132142,0.025162,-0.101088,0.0704143
[0:00:08.600000],46.3757,29.7619,29.2542,0.885293,0.308587,0.324458,0.126519,0.798459,-0.578492,0.396105,-0.206143,-0.0115695,-0.200966,-0.00531815,-0.0892914,0.0346533
[0:00:08.700000],45.3423,28.3137,28.9449,0.890036,0.305466,0.311868,0.132337,0.773309,-0.578688,0.377228,-0.213424,-0.0113206,-0.210803,-0.0327413,-0.0790168,0.00230845
[0:00:08.800000],44.4194,26.9882,28.723,0.894151,0.302482,0.300401,0.137862,0.744517,-0.573036,0.368287,-0.212245,0.0197634,-0.200413,-0.0563953,-0.0660001,-0.024405
[0:00:08.900000],43.5176,25.6714,28.6574,0.897911,0.29912,0.289311,0.144327,0.735088,-0.588327,0.338466,-0.191076,0.0147292,-0.187941,-0.0741428,-0.055362,-0.0459548
[0:00:09],42.5368,24.3769,28.6615,0.901652,0.294817,0.278339,0.151268,0.695818,-0.587166,0.325965,-0.197961,0.0281697,-0.181057,-0.0904588,-0.0443547,-0.0637578
[0:00:09.100000],41.5925,23.0106,28.5789,0.905355,0.291112,0.26652,0.157483,0.701082,-0.561931,0.310085,-0.187431,0.0428055,-0.162301,-0.103237,-0.0328692,-0.0767433
[0:00:09.200000],40.6723,21.8097,28.5355,0.908693,0.286995,0.255974,0.163206,0.672245,-0.558869,0.286128,-0.196523,0.0411735,-0.144762,-0.11553,-0.0231123,-0.0857064
[0:00:09.300000],39.8935,20.5693,28.4669,0.911641,0.284083,0.245164,0.168373,0.658957,-0.581601,0.272517,-0.208932,0.0280697,-0.121381,-0.127838,-0.0163678,-0.0904074
[0:00:09.400000],39.023,19.4002,28.4434,0.914599,0.280101,0.234788,0.173704,0.623119,-0.557673,0.273994,-0.181878,-0.00680514,-0.110472,-0.134959,-0.0151077,-0.0930514
[0:00:09.500000],38.2663,18.2155,28.5863,0.91693,0.27668,0.224777,0.180026,0.611542,-0.561162,0.258847,-0.183451,-0.0238291,-0.100159,-0.141349,-0.0162569,-0.093988
[0:00:09.600000],37.6244,17.1405,28.8173,0.918676,0.273721,0.21593,0.186366,0.595374,-0.56833,0.241507,-0.165612,0.021822,-0.0972562,-0.144546,-0.0112391,-0.0944186
[0:00:09.700000],36.8089,16.1886,28.9846,0.920781,0.269183,0.207534,0.192039,0.581839,-0.566515,0.235999,-0.14641,0.0344291,-0.0998009,-0.144792,-0.0052212,-0.0951279
[0:00:09.800000],36.1771,14.9855,29.2185,0.92235,0.266603,0.197555,0.198527,0.57614,-0.563956,0.228506,-0.135558,0.0222544,-0.110899,-0.143575,-0.00160062,-0.0972062
[0:00:09.900000],35.48,14.0441,29.4291,0.92391,0.262903,0.189397,0.204075,0.542778,-0.557729,0.212844,-0.178047,0.0674541,-0.112326,-0.148118,0.00749903,-0.0991986
[0:00:10],34.8277,13.0372,29.7538,0.925092,0.259543,0.180996,0.210546,0.528379,-0.536399,0.207076,-0.171515,0.0741789,-0.113764,-0.151201,0.0162857,-0.101118
[0:00:10.100000],34.1451,12.1399,30.0637,0.926245,0.255715,0.173305,0.216544,0.530184,-0.55084,0.194874,-0.178912,0.0569599,-0.117873,-0.154852,0.0216455,-0.103326
[0:00:10.200000],33.4918,11.2245,30.2842,0.927421,0.252313,0.165266,0.221725,0.495009,-0.540006,0.172669,-0.167877,0.0527994,-0.108804,-0.156569,0.0257508,-0.104048
[0:00:10.300000],32.9456,10.3799,30.6375,0.928014,0.249431,0.158237,0.227554,0.470884,-0.521965,0.169501,-0.146026,0.0486965,-0.102936,-0.155179,0.0287745,-0.103901
[0:00:10.400000],32.3377,9.5045,30.9799,0.928684,0.246165,0.150763,0.233376,0.47909,-0.531312,0.167017,-0.144686,0.0445193,-0.0837369,-0.153797,0.0308493,-0.101244
[0:00:10.500000],31.7256,8.61961,31.3922,0.929133,0.242825,0.143299,0.239706,0.446688,-0.52622,0.151792,-0.145578,0.0499308,-0.0512878,-0.152714,0.0333637,-0.0946612
[0:00:10.600000],31.2017,7.81059,31.7412,0.929448,0.240127,0.136441,0.245144,0.44437,-0.51229,0.145594,-0.130343,0.0497439,-0.0374332,-0.149766,0.0355222,-0.08712
[0:00:10.700000],30.6564,7.0205,32.215,0.929464,0.237094,0.129905,0.251501,0.429231,-0.513591,0.140987,-0.161913,0.0542645,-0.0440903,-0.151367,0.037992,-0.0814498
[0:00:10.800000],30.1937,6.26875,32.6647,0.92929,0.234705,0.123763,0.257412,0.410767,-0.511653,0.147886,-0.155092,0.0468951,-0.0511134,-0.151857,0.0391652,-0.0774522
[0:00:10.900000],29.7563,5.50568,33.0733,0.929085,0.232631,0.117467,0.262927,0.387998,-0.501546,0.140102,-0.122064,0.0224363,-0.0442506,-0.147931,0.0369607,-0.0730771
[0:00:11],29.3946,4.7398,33.5199,0.92857,0.231176,0.11137,0.268622,0.385365,-0.490684,0.128515,-0.105973,0.0260977,-0.0608354,-0.142402,0.0355293,-0.0714639
[0:00:11.100000],28.9837,4.0858,33.9931,0.92806,0.229054,0.106082,0.274281,0.367637,-0.506233,0.120967,-0.0988323,0.0151954,-0.0572469,-0.136661,0.0328498,-0.0695905
[0:00:11.200000],28.5829,3.52751,34.4764,0.927482,0.226798,0.101579,0.279759,0.373906,-0.503661,0.115149,-0.113926,0.00672331,-0.0583142,-0.133665,0.029407,-0.0681046
[0:00:11.300000],28.0874,2.87328,34.9175,0.927101,0.224096,0.0959558,0.285134,0.354143,-0.491785,0.122209,-0.116447,0.0296055,-0.0347182,-0.131396,0.0294331,-0.0637051
[0:00:11.400000],27.7344,2.233,35.5213,0.925978,0.222418,0.0910862,0.291623,0.344566,-0.487738,0.107291,-0.103597,0.0465227,-0.023811,-0.127733,0.0316851,-0.0584481
[0:00:11.500000],27.3719,1.67221,35.9752,0.925232,0.220616,0.0865168,0.296703,0.31568,-0.499498,0.11158,-0.0956034,0.0558675,-0.0221776,-0.123499,0.0348717,-0.0536686
[0:00:11.600000],27.0138,1.26022,36.4929,0.924346,0.21844,0.0832558,0.301962,0.31722,-0.478583,0.099834,-0.110658,0.0293756,-0.0296147,-0.121807,0.0341475,-0.0504989
[0:00:11.700000],26.7132,0.655568,37.1039,0.922945,0.217214,0.0787505,0.308274,0.323087,-0.469893,0.109024,-0.0938304,0.0415471,-0.0243347,-0.11812,0.0351226,-0.0470511
[0:00:11.800000],26.3727,0.16502,37.601,0.921939,0.215478,0.0748197,0.313439,0.31007,-0.482974,0.102653,-0.107742,0.0388236,-0.0210576,-0.116753,0.0356103,-0.0436258
[0:00:11.900000],26.0475,-0.404684,38.2226,0.920461,0.214041,0.0705065,0.319705,0.279985,-0.474943,0.0982726,-0.102243,0.0149461,-0.0372851,-0.114841,0.0328873,-0.0427903
[0:00:12],25.6445,-0.792318,38.9088,0.91901,0.211479,0.0675318,0.326163,0.271267,-0.473465,0.0927072,-0.100373,-0.0176582,-0.0214064,-0.112934,0.0262267,-0.0399724
[0:00:12.100000],25.3149,-1.16455,39.5537,0.917497,0.209523,0.0647836,0.332186,0.274903,-0.459985,0.0970474,-0.0961119,-0.00449116,-0.0194114,-0.110717,0.0221788,-0.037263
[0:00:12.200000],24.9433,-1.51435,40.2062,0.916005,0.207199,0.0620801,0.338222,0.260377,-0.481643,0.0868564,-0.0580418,0.0085746,-0.0113919,-0.103776,0.0203861,-0.0338538
[0:00:12.300000],24.4874,-1.99442,40.7946,0.914704,0.204652,0.0579369,0.343979,0.264636,-0.478765,0.0899894,-0.0591745,0.0163375,-0.0174266,-0.0978988,0.0198526,-0.0316892
[0:00:12.400000],24.2142,-2.34054,41.521,0.912713,0.203141,0.055634,0.350482,0.250116,-0.472499,0.0972058,-0.0589138,0.035512,-0.0244216,-0.0927615,0.0219161,-0.0307315
[0:00:12.500000],23.8133,-2.68627,42.239,0.910919,0.200653,0.0529013,0.356947,0.230172,-0.461977,0.0842885,-0.0667161,0.0364722,-0.0223048,-0.0893294,0.0238343,-0.0296211
[0:00:12.600000],23.4739,-2.97724,42.8775,0.90926,0.198558,0.0506281,0.362632,0.248293,-0.45902,0.0795825,-0.0588778,0.0513624,-0.00931747,-0.0853167,0.0274618,-0.0269456
[0:00:12.700000],23.111,-3.28163,43.4225,0.907886,0.19639,0.0479875,0.367581,0.228217,-0.455049,0.0817437,-0.0735085,0.0148456,-0.0235002,-0.0837607,0.0257993,-0.0264916
[0:00:12.800000],22.7283,-3.54645,44.12,0.906048,0.193907,0.0458322,0.373658,0.235017,-0.460215,0.0819033,-0.0508997,0.0215019,-0.0232112,-0.0794304,0.025233,-0.0260593
[0:00:12.900000],22.4299,-3.91945,44.7728,0.904069,0.192485,0.0429911,0.379479,0.208501,-0.459648,0.0846329,-0.0668053,0.0513042,-0.0102303,-0.0777668,0.0286685,-0.0239734
[0:00:13],22.247,-4.21685,45.4972,0.901682,0.191737,0.0412382,0.385682,0.212845,-0.444659,0.078819,-0.0869449,0.0505331,-0.00974942,-0.0789762,0.0315497,-0.0220991
[0:00:13.100000],21.969,-4.47791,46.1154,0.899802,0.19019,0.0392621,0.391007,0.202565,-0.450546,0.0674926,-0.0535541,0.0375152,-0.0146519,-0.0756262,0.0323358,-0.0211177
[0:00:13.200000],21.6858,-4.6904,46.7091,0.898026,0.188474,0.037593,0.396052,0.21016,-0.427368,0.0753973,-0.0438217,0.0421365,-0.01449,-0.0714352,0.0336273,-0.0202444
[0:00:13.300000],21.4739,-4.93451,47.3646,0.895853,0.187424,0.0360071,0.40158,0.184979,-0.431622,0.0802333,-0.033539,0.00547655,-0.00637641,-0.0664415,0.0299177,-0.0184169
[0:00:13.400000],21.1765,-5.16698,48.1152,0.893455,0.185663,0.0343507,0.407838,0.187956,-0.451761,0.0764277,-0.0471804,-0.00189315,-0.00651451,-0.0639033,0.0257259,-0.0168485
[0:00:13.500000],20.9404,-5.35917,48.7906,0.891222,0.184288,0.033087,0.413414,0.19603,-0.43598,0.0674282,-0.046086,0.00809189,-0.0117614,-0.0615555,0.0234022,-0.0161781
[0:00:13.600000],20.7226,-5.67096,49.4405,0.888891,0.183504,0.0308981,0.418915,0.183106,-0.425666,0.0702332,-0.0588977,0.0235257,-0.0119704,-0.0612052,0.0234184,-0.0156237
[0:00:13.700000],20.405,-5.91946,50.0521,0.886887,0.181763,0.0287633,0.424041,0.171345,-0.444762,0.0732235,-0.0692436,0.0582905,-0.00622262,-0.0622645,0.0280137,-0.0143848
[0:00:13.800000],20.2947,-6.1197,50.7685,0.88418,0.181451,0.027927,0.429844,0.170555,-0.420989,0.0673472,-0.0955601,0.0299339,0.0043879,-0.066652,0.0282667,-0.0119111
[0:00:13.900000],20.105,-6.27257,51.4011,0.881928,0.180391,0.0270212,0.434944,0.158198,-0.424392,0.0734394,-0.073173,0.00849336,-0.000468545,-0.0675113,0.0256611,-0.0104032
[0:00:14],19.9004,-6.36037,52.0684,0.879606,0.178985,0.0266052,0.440221,0.150571,-0.417886,0.0726889,-0.0423152,0.00571751,-0.0136635,-0.0641911,0.0230331,-0.0108329
[0:00:14.100000],19.7922,-6.5651,52.7392,0.876958,0.178763,0.02565,0.445618,0.144213,-0.425873,0.0638247,-0.0226285,-0.0133702,-0.00430571,-0.0587142,0.018236,-0.00997275
[0:00:14.200000],19.517,-6.70115,53.3961,0.874665,0.177027,0.0245435,0.450849,0.14692,-0.437645,0.070596,-0.0473176,-0.0370723,-0.0146235,-0.0572124,0.0109478,-0.0105856
[0:00:14.300000],19.2867,-6.85416,54.097,0.872074,0.175707,0.0235324,0.456403,0.149334,-0.418089,0.0649288,-0.0403256,-0.0299247,-0.0212675,-0.0549872,0.00556185,-0.0119932
[0:00:14.400000],19.1083,-6.94035,54.7646,0.869576,0.174547,0.0231764,0.461603,0.13838,-0.435313,0.0649375,-0.0593526,-0.0151544,-0.0230241,-0.0555624,0.00283197,-0.0134468
[0:00:14.500000],18.8489,-7.05229,55.4706,0.866982,0.172878,0.0223385,0.467119,0.132352,-0.437333,0.0669364,-0.0609635,0.0101963,-0.0349254,-0.0562742,0.0038024,-0.0162771
[0:00:14.600000],18.7162,-7.24852,56.2004,0.863966,0.172511,0.021396,0.472852,0.108202,-0.429771,0.0508528,-0.0704528,0.0271114,-0.0382703,-0.0581425,0.00687393,-0.0191753
[0:00:14.700000],18.5205,-7.4366,56.9876,0.860774,0.171646,0.0203344,0.478996,0.130215,-0.43424,0.0587138,-0.0676672,0.0337548,-0.0188633,-0.0593976,0.0104161,-0.0191342
[0:00:14.800000],18.4602,-7.57594,57.6016,0.858123,0.171648,0.0199433,0.483744,0.108883,-0.417279,0.0503227,-0.0380365,0.0637069,-0.00147889,-0.0565828,0.0174385,-0.0168076
[0:00:14.900000],18.3524,-7.60946,58.314,0.855221,0.170855,0.0202969,0.48912,0.112697,-0.418415,0.0508446,-0.0428347,0.0351843,0.0230686,-0.0547711,0.0197769,-0.011553
[0:00:15],18.2428,-7.60138,58.9746,0.85256,0.169886,0.0208699,0.494054,0.0950146,-0.41357,0.0596316,-0.0472823,0.0147485,0.0245817,-0.0537843,0.0191143,-0.00679135
[0:00:15.100000],18.0463,-7.74914,59.763,0.849257,0.168904,0.0200725,0.500076,0.0977079,-0.416092,0.0611584,-0.0683297,0.00272111,0.0185493,-0.055701,0.0169541,-0.0034521
[0:00:15.200000],17.9656,-7.87636,60.3737,0.846546,0.168738,0.0196655,0.504722,0.103259,-0.411009,0.0623577,-0.0577771,0.00160509,0.0069205,-0.0559746,0.0149315,-0.00208525
[0:00:15.300000],17.7959,-7.82569,61.1237,0.843535,0.16714,0.0203916,0.510237,0.0793553,-0.423147,0.0616469,-0.040005,-0.013125,-0.00566482,-0.0538702,0.0112344,-0.00255695
[0:00:15.400000],17.7119,-7.84111,61.7871,0.840671,0.16647,0.0208667,0.51514,0.082995,-0.414428,0.0538537,-0.0303235,-0.032597,-0.0196802,-0.0507674,0.00545852,-0.00481335
[0:00:15.500000],17.5573,-7.82071,62.5814,0.837328,0.165102,0.0214679,0.520966,0.0743755,-0.415129,0.0632514,-0.0317262,-0.017268,-0.0211065,-0.0482582,0.00246375,-0.00696037
[0:00:15.600000],17.4606,-7.87039,63.3835,0.833741,0.164465,0.0218125,0.526873,0.0770566,-0.416063,0.0505323,0.00328298,-0.00836797,-0.0140525,-0.0414664,0.00103641,-0.00789493
[0:00:15.700000],17.2699,-7.85958,64.0421,0.830985,0.162906,0.021952,0.531684,0.091953,-0.438375,0.0598394,-0.00181428,0.00757402,-0.0114953,-0.0362413,0.0018979,-0.00836937
[0:00:15.800000],17.2394,-7.8322,64.7297,0.827856,0.162427,0.0229868,0.536645,0.0662424,-0.420497,0.047841,-0.0253411,-0.00698749,-0.0051211,-0.0348049,0.00072703,-0.00794133
[0:00:15.900000],17.0826,-7.941,65.4192,0.824703,0.161656,0.0224291,0.541732,0.077484,-0.409345,0.0524778,-0.0178023,0.00938555,-0.018396,-0.0325644,0.001868,-0.00931898
[0:00:16],16.9331,-8.08559,66.1563,0.821238,0.161105,0.0217045,0.547163,0.0792575,-0.421297,0.0552927,-0.0447514,0.00962029,-0.00168786,-0.0341703,0.00288956,-0.0083134
[0:00:16.100000],16.8943,-8.1167,66.7936,0.818199,0.16085,0.0221882,0.551751,0.054489,-0.420451,0.0486411,-0.0472315,0.0115006,-0.016862,-0.0358915,0.00402427,-0.00943989
[0:00:16.200000],16.7507,-8.09628,67.5194,0.814914,0.159589,0.0226557,0.556936,0.0699174,-0.428222,0.0511706,-0.0471967,-0.0176657,-0.0068216,-0.0373812,0.00116608,-0.00909486
[0:00:16.300000],16.6012,-8.22386,68.2893,0.811206,0.158983,0.0220784,0.562517,0.0641733,-0.414245,0.0426145,-0.0533075,-0.0273406,-0.00293701,-0.0394799,-0.00259038,-0.00828341
[0:00:16.400000],16.498,-8.26663,68.945,0.808065,0.158332,0.0221711,0.567199,0.0409124,-0.421966,0.0549055,-0.0459564,-0.0112849,0.0045581,-0.0403333,-0.00373609,-0.00659123
[0:00:16.500000],16.4934,-8.33658,69.5822,0.80482,0.158512,0.0225292,0.57173,0.0499583,-0.418542,0.0416851,-0.066822,0.000914963,-0.00623096,-0.0438239,-0.0031232,-0.00654376
[0:00:16.600000],16.4036,-8.3471,70.4014,0.800823,0.157771,0.0231348,0.577494,0.0404994,-0.434015,0.0535994,-0.0817305,0.0146058,-0.00641285,-0.048819,-0.000786966,-0.00652651
[0:00:16.700000],16.175,-8.4211,71.0708,0.797658,0.156408,0.0223723,0.582255,0.0441654,-0.432616,0.051454,-0.0281767,-0.0111383,-0.00947411,-0.0460989,-0.002151,-0.00691493
[0:00:16.800000],16.066,-8.33612,71.7197,0.794601,0.1551,0.0232974,0.586732,0.0201201,-0.409566,0.040897,-0.0283233,0.0141891,-0.0171541,-0.0437565,2.20794e-06,-0.00826419
[0:00:16.900000],15.8943,-8.29188,72.4507,0.791127,0.153541,0.0237097,0.591798,0.0167337,-0.414009,0.0386918,-0.0501339,0.0135477,-0.0207141,-0.0445969,0.00178716,-0.00990477
[0:00:17],15.8332,-8.22564,73.2269,0.787263,0.152621,0.0248924,0.597117,0.0346625,-0.426161,0.0515484,-0.0198523,0.00769766,-0.0213793,-0.0413362,0.00256601,-0.0114168
[0:00:17.100000],15.7476,-8.28756,74.0502,0.782991,0.152171,0.0251089,0.602812,0.0354851,-0.436172,0.0392106,-0.0200555,-0.00566973,0.00898967,-0.0385319,0.00148075,-0.00872776
[0:00:17.200000],15.6145,-8.28059,74.7861,0.779289,0.151066,0.0254274,0.607853,0.00325686,-0.406313,0.0405873,-0.012819,-0.0208669,0.0234429,-0.0351436,-0.0014641,-0.00448849
[0:00:17.300000],15.4182,-8.30373,75.573,0.775326,0.149681,0.0252552,0.613247,0.0133553,-0.42299,0.0376001,-0.0469474,0.00843492,0.0204769,-0.036699,-0.00015966,-0.00119869
[0:00:17.400000],15.351,-8.3077,76.3247,0.771369,0.14908,0.0258467,0.618337,0.0248224,-0.422784,0.0533541,-0.0480686,0.0196812,0.0214358,-0.0381973,0.00245485,0.00178396
[0:00:17.500000],15.3532,-8.28657,77.1046,0.767166,0.148804,0.0270163,0.623561,0.00425215,-0.420088,0.0535566,-0.0359305,-0.00721151,0.0275741,-0.0378986,0.00118107,0.00518244
[0:00:17.600000],15.1986,-8.31131,77.848,0.763275,0.147728,0.0269658,0.628573,0.00748707,-0.430923,0.0496789,-0.0471338,-0.0152924,-0.00490349,-0.0391155,-0.000989716,0.00385337
[0:00:17.700000],15.0514,-8.31906,78.6346,0.759122,0.146607,0.0271135,0.633837,-0.00668488,-0.40985,0.047631,-0.0561897,0.0224444,-0.0237385,-0.0413655,0.0020983,0.000217464
[0:00:17.800000],14.9463,-8.20191,79.4021,0.755135,0.145092,0.0282927,0.638877,-0.00154874,-0.417693,0.0478539,-0.0203382,-7.36772e-05,-0.0461569,-0.0385946,0.00181209,-0.00589349
[0:00:17.900000],14.8268,-8.09806,80.1923,0.750986,0.143539,0.0293116,0.644051,-0.0129381,-0.431205,0.0442068,-0.00194735,-0.0025555,-0.029097,-0.0337654,0.00123655,-0.00895111
[0:00:18],14.8472,-8.0479,80.9942,0.746495,0.143186,0.0307629,0.649262,-0.0103623,-0.415098,0.0352059,-0.0260384,0.00758255,-0.019369,-0.0327472,0.00207279,-0.0103239
[0:00:18.100000],14.8154,-8.00733,81.7112,0.742506,0.142558,0.0317439,0.65391,0.00138623,-0.41447,0.0389985,-0.0493668,0.00427632,-0.0142352,-0.0349373,0.00236316,-0.0108393
[0:00:18.200000],14.7232,-8.00493,82.3442,0.739,0.141773,0.0320176,0.658027,-0.0121832,-0.428434,0.0330331,-0.0708237,0.0159262,-0.00690544,-0.0396662,0.00415043,-0.010321
[0:00:18.300000],14.5955,-7.83415,82.9994,0.735584,0.139801,0.0332028,0.662203,-0.0291893,-0.412975,0.0434294,-0.0449283,0.00760989,0.00915818,-0.0403596,0.0046063,-0.0077541
[0:00:18.400000],14.4876,-7.74073,83.6528,0.732037,0.138387,0.0339778,0.666379,-0.034654,-0.4122,0.0368881,-0.0304415,-0.0161648,0.0245824,-0.0390526,0.00186919,-0.00349297
[0:00:18.500000],14.4434,-7.71443,84.4485,0.727476,0.137716,0.0348484,0.671448,-0.0359691,-0.42179,0.0368196,-0.0334789,-0.0237485,0.0145852,-0.0383182,-0.00150656,-0.00111074
[0:00:18.600000],14.2657,-7.76024,85.2471,0.722938,0.136615,0.034465,0.676575,-0.0242492,-0.422814,0.0406181,0.00274347,-0.00747785,-0.00324943,-0.0329073,-0.00229342,-0.00139256
[0:00:18.700000],14.2247,-7.70459,85.894,0.719221,0.135836,0.0353468,0.680636,-0.0191364,-0.419168,0.046482,-0.0114884,-0.0167932,-0.0133583,-0.0300848,-0.00420413,-0.00296934
[0:00:18.800000],14.0729,-7.69791,86.6318,0.71501,0.13462,0.0353554,0.685297,-0.0399559,-0.428894,0.0441161,-0.033937,0.009224,-0.0109068,-0.0305924,-0.00243464,-0.00401528
[0:00:18.900000],13.9936,-7.55669,87.2969,0.711276,0.133086,0.0365494,0.689408,-0.0530158,-0.424592,0.030222,-0.0569038,0.0285219,-0.0271621,-0.0340596,0.00164464,-0.00706545
[0:00:19],13.9434,-7.42605,87.9534,0.707521,0.131787,0.0378264,0.69344,-0.0283553,-0.405937,0.0300291,-0.0569559,0.0171298,-0.0223585,-0.0370768,0.00368518,-0.00908069
[0:00:19.100000],13.8583,-7.25437,88.7507,0.702972,0.129969,0.0392928,0.698312,-0.0537038,-0.425595,0.039862,-0.0207836,0.0162544,-0.00986898,-0.0349297,0.00534148,-0.00918456
[0:00:19.200000],13.764,-7.10467,89.5056,0.69863,0.128229,0.040496,0.702907,-0.0494025,-0.411575,0.0326859,0.00318492,0.0255458,0.00613947,-0.0299072,0.0080039,-0.00716525
[0:00:19.300000],13.6524,-6.90821,90.1427,0.695053,0.126131,0.0417289,0.70675,-0.0571687,-0.411993,0.029625,-0.0296082,0.0130074,0.0100905,-0.0298678,0.00866323,-0.00489138
[0:00:19.400000],13.6282,-6.83961,90.7777,0.691227,0.125333,0.0426971,0.710575,-0.0488999,-0.419737,0.0373825,-0.0254838,-0.00603294,-0.0117681,-0.0292901,0.00672665,-0.00579755
[0:00:19.500000],13.6846,-6.67852,91.4306,0.687284,0.124435,0.0447415,0.714422,-0.0463521,-0.407397,0.0324697,0.00786804,-0.00966562,-0.00455079,-0.0243936,0.00456657,-0.00563326
[0:00:19.600000],13.6045,-6.59298,92.1111,0.683208,0.123161,0.045495,0.718493,-0.0588463,-0.407371,0.0335007,-0.0260555,-0.0329789,-0.00643432,-0.0246126,-0.000380963,-0.00573882
[0:00:19.700000],13.6128,-6.43115,92.8171,0.678936,0.121921,0.0472778,0.722628,-0.0691625,-0.421137,0.0317582,-0.0177769,-0.000319056,-0.0138888,-0.0237118,-0.000372805,-0.00681278
[0:00:19.800000],13.5585,-6.29433,93.532,0.67462,0.120447,0.0485096,0.726823,-0.0462205,-0.427913,0.0267021,-0.00692779,0.00364004,-0.00581363,-0.0215001,0.000155986,-0.00668111
[0:00:19.900000],13.4914,-6.14455,94.1763,0.670752,0.118836,0.0496465,0.730581,-0.0593687,-0.416287,0.0369577,-0.0178227,-0.0153318,0.0146111,-0.0210155,-0.0018849,-0.00387534
[0:00:20],13.4407,-6.11591,94.945,0.66592,0.118024,0.0502866,0.735076,-0.0716891,-0.412332,0.0241274,-0.00310095,0.00972939,0.0228021,-0.0186548,-0.000354436,-0.000359939
[0:00:20.100000],13.4795,-6.11126,95.6724,0.661205,0.117896,0.0513117,0.73927,-0.0527486,-0.404625,0.0369098,-0.0301371,0.0355551,0.0308377,-0.0201679,0.00437753,0.00375112
[0:00:20.200000],13.38,-6.07962,96.2974,0.657298,0.116842,0.0514934,0.742899,-0.0643455,-0.425849,0.0409694,-0.0593142,0.0242362,0.021892,-0.0253264,0.0069944,0.00614162
[0:00:20.300000],13.2557,-5.90368,96.9973,0.653059,0.114683,0.0524123,0.746899,-0.0836303,-0.422846,0.0404044,-0.0507755,-0.0138057,0.00532361,-0.0286799,0.00425348,0.00603383
[0:00:20.400000],13.2709,-5.86864,97.725,0.648325,0.114207,0.0534402,0.751012,-0.062209,-0.398277,0.0394275,-0.0701065,-0.0122581,-0.00615464,-0.0341389,0.00207767,0.0044277
[0:00:20.500000],13.3777,-5.74297,98.4842,0.643362,0.11363,0.0556141,0.755199,-0.0938403,-0.403244,0.0383564,-0.0521469,0.000725245,-0.0444644,-0.0365119,0.00189946,-0.00201503
[0:00:20.600000],13.385,-5.65472,99.1379,0.639128,0.112773,0.0568086,0.758825,-0.0931012,-0.422628,0.0320122,-0.0177966,0.0137802,-0.0390609,-0.0340457,0.00346504,-0.00689673
[0:00:20.700000],13.4323,-5.57829,99.867,0.634321,0.112167,0.0582691,0.762827,-0.0890271,-0.42883,0.030977,-0.0238829,-0.0156632,-0.0104332,-0.0327065,0.00094443,-0.00736276
[0:00:20.800000],13.3916,-5.42264,100.566,0.629859,0.110555,0.0595466,0.766651,-0.0929148,-0.405253,0.0265922,-0.0139123,-0.0202543,-0.00564324,-0.0302299,-0.00184903,-0.00713617
[0:00:20.900000],13.3886,-5.38813,101.229,0.625452,0.109962,0.0603557,0.770272,-0.0824886,-0.406497,0.0223748,-0.00669994,0.0262317,0.0154331,-0.0271293,0.00185129,-0.00416211
[0:00:21],13.4276,-5.24473,101.891,0.621102,0.108863,0.0620411,0.773806,-0.101542,-0.412947,0.0375654,-0.0367711,0.0234432,0.0136215,-0.0283998,0.00469655,-0.00181869
[0:00:21.100000],13.4665,-5.18498,102.482,0.617126,0.10835,0.0631922,0.776959,-0.103372,-0.423577,0.0398284,-0.0459547,-0.0223808,-0.00485321,-0.0307131,0.00112845,-0.00221856
[0:00:21.200000],13.4941,-5.07278,103.114,0.612922,0.107389,0.0645846,0.780299,-0.0932429,-0.414013,0.0228627,-0.0332029,-0.0303427,-0.00216271,-0.0310412,-0.00301864,-0.0022112
[0:00:21.300000],13.5344,-4.97716,103.854,0.607934,0.106535,0.0660663,0.784185,-0.114774,-0.401301,0.0372884,-0.00250699,-0.00904557,-0.0125826,-0.0272811,-0.00381283,-0.00357789
[0:00:21.400000],13.4433,-4.84089,104.514,0.603632,0.104744,0.0667795,0.787681,-0.104042,-0.424893,0.0213402,0.0122725,0.000577933,-0.0169291,-0.0220689,-0.00323424,-0.00533723
[0:00:21.500000],13.4276,-4.64915,105.213,0.599029,0.102939,0.068323,0.791292,-0.108276,-0.428414,0.0266834,0.00139987,-0.0151511,-0.012623,-0.0189764,-0.00480459,-0.00629731
[0:00:21.600000],13.5177,-4.57009,105.802,0.594955,0.10251,0.0698915,0.794279,-0.0987825,-0.410983,0.0373175,-0.0159006,-0.0265751,-0.00126257,-0.018571,-0.00767338,-0.00563386
[0:00:21.700000],13.5936,-4.54592,106.372,0.590952,0.102385,0.0710551,0.797175,-0.0989725,-0.419294,0.0231292,-0.0317897,0.00591624,-0.00177167,-0.0203129,-0.00588262,-0.00512492
[0:00:21.800000],13.5605,-4.35667,107.041,0.586509,0.100486,0.0724009,0.80057,-0.118751,-0.417634,0.0249417,-0.074519,0.0457869,0.0229711,-0.0274559,0.000926112,-0.00142258
[0:00:21.900000],13.5056,-4.17974,107.72,0.581982,0.0985435,0.0735189,0.804005,-0.115488,-0.426158,0.0232129,-0.0495646,0.0409223,0.0117463,-0.0303693,0.00619659,0.000312748
[0:00:22],13.5495,-4.08308,108.377,0.577425,0.097665,0.0748845,0.807266,-0.129369,-0.412342,0.038654,-0.0364436,0.0213394,0.0266199,-0.0311697,0.00819203,0.00377936
[0:00:22.100000],13.5689,-3.84992,108.979,0.573393,0.0957284,0.0767136,0.810195,-0.128239,-0.399247,0.0350416,-0.0154203,0.00748855,0.0233087,-0.0290943,0.00809933,0.00635283
[0:00:22.200000],13.6696,-3.80024,109.68,0.568398,0.0954068,0.0782614,0.813597,-0.128595,-0.402675,0.0363745,-0.0159698,-0.0335575,-0.00928127,-0.0273649,0.00261002,0.00429266
[0:00:22.300000],13.7301,-3.76489,110.419,0.563122,0.0949462,0.0794823,0.817194,-0.113941,-0.415426,0.0297489,-0.021697,-0.0460727,-0.0241418,-0.026618,-0.00380512,0.000545721
[0:00:22.400000],13.6583,-3.68448,110.979,0.559262,0.0936344,0.0798288,0.819957,-0.136955,-0.428821,0.036018,-0.020759,-0.0247709,-0.0348558,-0.0258459,-0.00656787,-0.0041193
[0:00:22.500000],13.6471,-3.57891,111.604,0.554899,0.0923896,0.0807746,0.822964,-0.138778,-0.424021,0.022309,-0.0372326,0.00792711,-0.016386,-0.0273464,-0.0046578,-0.00573574
[0:00:22.600000],13.7177,-3.53052,112.312,0.549796,0.0918802,0.0820876,0.82631,-0.140255,-0.420772,0.0248675,-0.0229176,0.0371401,-0.0156157,-0.0267628,0.000850092,-0.00703767
[0:00:22.700000],13.6654,-3.4459,113.048,0.5446,0.0904923,0.0827041,0.829835,-0.132555,-0.404588,0.0277384,-0.0363316,0.0374341,0.0087803,-0.0280237,0.00567094,-0.00495327
[0:00:22.800000],13.6896,-3.31557,113.71,0.539913,0.0891846,0.0840214,0.832901,-0.143468,-0.399719,0.0246559,-0.00784478,0.0191445,0.0130693,-0.0253647,0.00744641,-0.00257835
[0:00:22.900000],13.7179,-3.19482,114.444,0.534665,0.0878992,0.0853669,0.83628,-0.145392,-0.419575,0.0297222,-0.0324206,-0.0125292,0.0167728,-0.0262945,0.00481413,-2.83548e-05
[0:00:23],13.7458,-3.11397,115.079,0.530084,0.0869644,0.0864345,0.839179,-0.143128,-0.414511,0.0264057,-0.04679,-0.0377766,0.0115198,-0.0289952,-0.000798237,0.0014934
[0:00:23.100000],13.7116,-2.95351,115.647,0.526099,0.085204,0.0873583,0.841768,-0.163708,-0.413968,0.038328,-0.0414042,-0.0179447,0.000473295,-0.0306304,-0.00305771,0.00135897
[0:00:23.200000],13.6878,-2.84248,116.235,0.521901,0.0838314,0.0881295,0.844434,-0.140228,-0.41188,0.0248899,0.00257331,0.0276295,0.00390264,-0.026255,0.000986084,0.00169416
[0:00:23.300000],13.6628,-2.6887,116.909,0.517098,0.0820657,0.0891358,0.847452,-0.165379,-0.418138,0.0293598,-0.00362503,0.0392496,-0.00882733,-0.023273,0.00602824,0.0003077
[0:00:23.400000],13.5912,-2.48014,117.552,0.512588,0.0797016,0.0900047,0.85032,-0.15924,-0.416109,0.033667,3.21814e-05,0.00506669,-0.00994128,-0.0202019,0.00590153,-0.00104285
[0:00:23.500000],13.7619,-2.3466,118.172,0.507997,0.0789797,0.0923017,0.852893,-0.147939,-0.393513,0.0229232,0.00899886,0.0182099,-0.0151749,-0.016354,0.00752346,-0.0029051
[0:00:23.600000],13.8124,-2.17671,118.726,0.503996,0.07749,0.0938129,0.855235,-0.142901,-0.403185,0.0332129,-0.00743913,0.00328896,-0.0160187,-0.0151793,0.00696546,-0.00463314
[0:00:23.700000],13.7632,-2.10796,119.318,0.499675,0.0762772,0.0941457,0.857839,-0.169595,-0.415974,0.0206966,0.00492257,0.0191699,-0.0161458,-0.0125304,0.0085737,-0.00615021
[0:00:23.800000],13.6865,-2.09114,119.996,0.49466,0.075262,0.094092,0.860836,-0.152883,-0.413334,0.0258613,-0.0145158,0.00841955,0.00533978,-0.012792,0.00855338,-0.00463612
[0:00:23.900000],13.6857,-1.92436,120.536,0.49076,0.0735609,0.0951586,0.863095,-0.152721,-0.391798,0.0225857,-0.0180183,0.00727236,0.025847,-0.0134807,0.00838458,-0.000619233
[0:00:24],13.753,-1.79065,121.086,0.486694,0.0723817,0.0965914,0.865334,-0.161192,-0.410231,0.0237677,-0.038451,0.00660508,0.0284844,-0.0167711,0.00815009,0.00321589
[0:00:24.100000],13.8089,-1.65547,121.803,0.481365,0.0709883,0.0980374,0.868263,-0.159749,-0.388795,0.0374191,-0.0506047,-0.0140296,0.0276786,-0.0212295,0.00522738,0.00643944
[0:00:24.200000],13.8168,-1.62962,122.454,0.476452,0.0702674,0.098606,0.870963,-0.164486,-0.412734,0.03512,-0.0628345,-0.0227388,-0.0100996,-0.026712,0.00154215,0.00426002
[0:00:24.300000],13.7972,-1.55117,122.953,0.472738,0.0691596,0.0990882,0.873018,-0.180573,-0.408872,0.0333542,-0.0526972,0.0127549,-0.017717,-0.0301362,0.0030197,0.00136401
[0:00:24.400000],13.8193,-1.46319,123.529,0.46842,0.0680808,0.0999651,0.875328,-0.190269,-0.411942,0.0288903,-0.0348601,0.0413409,-0.0193802,-0.0307587,0.00806946,-0.00136955
[0:00:24.500000],13.8617,-1.31378,124.239,0.463109,0.0664883,0.101316,0.878116,-0.174234,-0.396866,0.0224133,-0.0231165,0.0407248,0.00360438,-0.0297516,0.0123726,-0.000714111
[0:00:24.600000],13.8515,-1.20868,124.92,0.457989,0.0650374,0.102054,0.880821,-0.176856,-0.389013,0.0220264,0.0097472,0.0358116,0.0226494,-0.0245467,0.0154613,0.0023646
[0:00:24.700000],14.0046,-1.03312,125.55,0.453225,0.0637295,0.104287,0.883116,-0.192713,-0.384785,0.0385418,0.0131718,-0.00744209,0.016909,-0.0195764,0.0124432,0.00428118
[0:00:24.800000],14.1274,-0.927436,126.088,0.44911,0.0629051,0.105949,0.885077,-0.17915,-0.403473,0.0375063,-0.0152905,-0.0309366,0.017356,-0.0190116,0.00672684,0.00600411
[0:00:24.900000],14.1098,-0.757168,126.622,0.445151,0.0610248,0.106769,0.887108,-0.183442,-0.397387,0.0385483,-0.0259087,-0.0379777,-0.00577634,-0.0199205,0.000835926,0.00445174
[0:00:25],14.1058,-0.696583,127.257,0.440297,0.059948,0.107308,0.889536,-0.177868,-0.409103,0.0248464,-0.0225203,-0.0239183,-0.0189199,-0.0202631,-0.00242605,0.00137196
[0:00:25.100000],14.1205,-0.541594,127.756,0.43656,0.0583309,0.108274,0.891366,-0.194267,-0.400203,0.0280551,-0.0106936,0.00363196,-0.0174527,-0.019002,-0.00162776,-0.00110865
[0:00:25.200000],14.1868,-0.380729,128.36,0.431977,0.0567552,0.109704,0.893523,-0.19622,-0.401574,0.0360664,-0.0246263,0.0191427,0.0115519,-0.0197432,0.00110926,0.000559688
[0:00:25.300000],14.1645,-0.290737,128.866,0.428126,0.0554844,0.110117,0.895404,-0.188241,-0.39766,0.0253433,-0.0212963,0.0246497,0.00862848,-0.0199478,0.00421129,0.00162295
[0:00:25.400000],14.1771,-0.190306,129.533,0.422998,0.054102,0.110907,0.897825,-0.195216,-0.401231,0.0364977,-0.00483393,0.0513088,0.00288885,-0.0179562,0.0104175,0.00178976
[0:00:25.500000],14.2046,-0.109345,130.024,0.419217,0.0530918,0.111649,0.899565,-0.184953,-0.390222,0.0328889,-0.0056174,0.0647882,-0.0137143,-0.0163303,0.0175822,-0.00025328
[0:00:25.600000],14.1946,0.00125249,130.519,0.415443,0.0517036,0.1122,0.901326,-0.205545,-0.389627,0.0335768,-0.0408604,0.0396681,-0.0157369,-0.0195627,0.0204926,-0.00229363
[0:00:25.700000],14.3535,0.175198,131.04,0.41144,0.0503924,0.11431,0.90297,-0.202142,-0.375651,0.0216915,-0.0519855,0.0268898,9.7257e-05,-0.0238352,0.0213356,-0.00197857
[0:00:25.800000],14.5531,0.207184,131.579,0.407125,0.0503099,0.116236,0.904683,-0.193405,-0.37286,0.0301923,-0.0418125,0.0109001,0.00441166,-0.0262042,0.0199604,-0.0011365
[0:00:25.900000],14.7219,0.231182,132.137,0.402669,0.0501469,0.117898,0.906469,-0.216729,-0.379006,0.030816,-0.0337171,-0.019281,0.0212695,-0.0271942,0.0147894,0.00181603
[0:00:26],14.6636,0.328849,132.722,0.398157,0.0485669,0.118029,0.908529,-0.218748,-0.400236,0.0316643,-0.0185384,-0.0219096,0.0111911,-0.0260536,0.00995342,0.00305143
[0:00:26.100000],14.7516,0.337064,133.303,0.393517,0.0482049,0.119002,0.910441,-0.21067,-0.371937,0.0388304,-0.0127943,-0.0119262,0.0153522,-0.0243063,0.00707025,0.00467236
[0:00:26.200000],14.8224,0.479866,133.846,0.389315,0.046744,0.120276,0.912155,-0.212023,-0.385395,0.0337307,-0.0166919,0.00287792,-0.00145827,-0.0233029,0.0065178,0.0038645
[0:00:26.300000],14.9403,0.503096,134.397,0.384899,0.0463753,0.121517,0.913881,-0.215096,-0.389518,0.0313937,0.0114457,-0.00266925,-0.0134779,-0.018724,0.00530718,0.00157922
[0:00:26.400000],15.0565,0.546862,134.975,0.380283,0.0457976,0.122823,0.915667,-0.217689,-0.380734,0.0289955,-0.0124028,-0.0145965,-0.0108153,-0.017891,0.00268438,-5.4065e-05
[0:00:26.500000],15.1387,0.594798,135.583,0.37544,0.0450307,0.123878,0.917559,-0.213252,-0.382543,0.0402408,-0.0217978,-0.0203657,-0.0117432,-0.0184058,-0.000353024,-0.00159439
[0:00:26.600000],15.085,0.754336,136.084,0.371607,0.0430339,0.124159,0.919176,-0.228168,-0.392861,0.0262958,-0.00128556,0.0169022,-0.00686801,-0.0161498,0.00192077,-0.00228932
[0:00:26.700000],15.0974,0.852576,136.73,0.366519,0.0415831,0.124812,0.921195,-0.203992,-0.391111,0.0252764,0.0103138,0.0286385,-0.0113675,-0.0126626,0.00544149,-0.00348559
[0:00:26.800000],15.1092,1.0413,137.237,0.36263,0.0395467,0.125683,0.922704,-0.227188,-0.380248,0.0360641,0.0164174,0.0327032,0.0070316,-0.00883057,0.00903388,-0.00209969
[0:00:26.900000],15.2066,1.1248,137.852,0.357726,0.0385013,0.126938,0.924489,-0.217125,-0.374008,0.0259144,0.0198623,0.0511359,0.0146023,-0.00504958,0.0145818,0.000101211
[0:00:27],15.3285,1.10607,138.333,0.35378,0.0384958,0.128027,0.925857,-0.206283,-0.372827,0.0303754,0.0163531,0.0368823,0.0257225,-0.00222925,0.0175205,0.00347744
[0:00:27.100000],15.3771,1.13481,138.936,0.348922,0.0377372,0.128707,0.927635,-0.213227,-0.368759,0.0346979,-0.0138738,0.0266034,0.0210901,-0.00376371,0.0187174,0.00579833
[0:00:27.200000],15.4804,1.20692,139.569,0.343832,0.0367494,0.129966,0.929399,-0.21319,-0.373418,0.0445399,-0.00291422,0.014824,0.0217268,-0.00365177,0.0182043,0.00789729
[0:00:27.300000],15.4961,1.1406,140.059,0.339775,0.0367786,0.130055,0.930876,-0.215079,-0.363558,0.0322012,-0.0507215,0.00158454,0.0094322,-0.00985436,0.0160143,0.00809955
[0:00:27.400000],15.5269,1.21372,140.508,0.3362,0.0357647,0.130661,0.932128,-0.22186,-0.3706,0.0385958,-0.0318921,0.003984,-0.00228994,-0.0127584,0.014429,0.00673048
[0:00:27.500000],15.6984,1.23113,141.121,0.331174,0.0354187,0.132297,0.933708,-0.227477,-0.358526,0.0433125,-0.0396876,-0.00568063,-0.0117029,-0.016307,0.0117791,0.00430143
[0:00:27.600000],15.7111,1.24514,141.581,0.327428,0.0348082,0.132582,0.93501,-0.221312,-0.372532,0.0367867,-0.0386215,-0.00690669,-0.000693111,-0.0192474,0.00931675,0.00364328
[0:00:27.700000],15.6797,1.3341,142.174,0.322695,0.0333059,0.132752,0.936685,-0.239535,-0.372667,0.0308735,-0.0226215,0.00630968,0.0163177,-0.0196921,0.00892049,0.00531344
[0:00:27.800000],15.804,1.43638,142.678,0.318648,0.032229,0.134195,0.937902,-0.22121,-0.361192,0.0446867,-0.016074,0.0175267,0.00129529,-0.0192153,0.0100546,0.00478395
[0:00:27.900000],15.9238,1.4014,143.227,0.31408,0.0322014,0.135236,0.939293,-0.24953,-0.369922,0.0350507,-0.0145017,0.0370307,0.00599107,-0.0185942,0.0136093,0.00494302
[0:00:28],15.9415,1.43819,143.825,0.309204,0.0312398,0.135646,0.940883,-0.228442,-0.359717,0.0470526,-0.0130431,0.0330454,0.0167123,-0.0178627,0.0161705,0.00649391
[0:00:28.100000],16.0651,1.39342,144.358,0.30474,0.0313054,0.136688,0.942186,-0.2338,-0.352944,0.0413421,-0.0130346,-0.007012,-0.00238624,-0.0172265,0.0131157,0.00532373
[0:00:28.200000],16.1965,1.45536,144.925,0.300108,0.030462,0.138083,0.943496,-0.241265,-0.362463,0.0344359,-0.0125575,-0.00907776,-0.00496149,-0.0166112,0.0101911,0.0039684
[0:00:28.300000],16.2682,1.55758,145.429,0.296057,0.0291963,0.139067,0.94467,-0.239542,-0.351566,0.0437416,0.00235638,-0.00989895,0.00128676,-0.0141118,0.00754377,0.00361503
[0:00:28.400000],16.2723,1.60169,145.936,0.291919,0.0282261,0.13934,0.945947,-0.241702,-0.374944,0.0444536,-0.0128402,-0.0191393,-0.00830422,-0.0139442,0.00402763,0.00204438
[0:00:28.500000],16.27,1.69106,146.465,0.287649,0.0268371,0.139671,0.947245,-0.243195,-0.365556,0.0339876,-0.0165606,0.0228769,0.00260392,-0.014289,0.00651149,0.00211811
[0:00:28.600000],16.4405,1.72234,147.082,0.282541,0.0262455,0.141301,0.948557,-0.234776,-0.34985,0.0456432,-0.0316109,0.0361311,-0.0067934,-0.0165716,0.0104146,0.000943801
[0:00:28.700000],16.3989,1.68819,147.653,0.277783,0.0257239,0.141003,0.950019,-0.247945,-0.362403,0.0364494,-0.0483471,0.0202107,-0.00543608,-0.0207588,0.0117055,0.000103096
[0:00:28.800000],16.4844,1.59737,148.195,0.273162,0.0260153,0.14162,0.951259,-0.251116,-0.3528,0.0389031,-0.0637635,0.0289141,0.00936727,-0.0264257,0.0139731,0.00132388
[0:00:28.900000],16.6085,1.65386,148.698,0.269019,0.0252141,0.142894,0.95227,-0.267525,-0.33973,0.0418048,-0.0481118,0.0132677,0.0222057,-0.0292834,0.0138802,0.00407557
[0:00:29],16.5489,1.62365,149.244,0.264461,0.024648,0.142449,0.953627,-0.257799,-0.362299,0.0399067,-0.0287501,0.0187816,0.0198781,-0.0292131,0.0145261,0.00615794
[0:00:29.100000],16.5673,1.73573,149.77,0.260209,0.0231007,0.142964,0.954758,-0.265853,-0.353556,0.048049,-0.00375543,0.0234417,0.0259603,-0.0258584,0.0157009,0.00876738
[0:00:29.200000],16.611,1.74442,150.192,0.256685,0.0225983,0.143431,0.955653,-0.269547,-0.33628,0.0463789,-0.0120862,0.0293838,-0.00641536,-0.0240436,0.017504,0.00676668
[0:00:29.300000],16.6376,1.70919,150.753,0.251959,0.0222491,0.143686,0.95688,-0.255513,-0.340514,0.0501555,-0.0130784,0.0401128,-0.0126435,-0.0225987,0.0204832,0.00420891
[0:00:29.400000],16.6608,1.73341,151.172,0.24848,0.0215708,0.144012,0.957756,-0.269494,-0.343645,0.0439367,-0.00826162,0.0228885,-0.0103919,-0.0207094,0.0208002,0.00228489
[0:00:29.500000],16.822,1.73199,151.71,0.24395,0.0212496,0.145457,0.958709,-0.270557,-0.338831,0.0412053,-0.0178683,0.00776235,-0.0102261,-0.020335,0.0190821,0.000636259
[0:00:29.600000],16.8515,1.735,152.237,0.239534,0.0206164,0.145807,0.959782,-0.274533,-0.326383,0.0350696,0.00357882,0.011234,0.0113458,-0.0171838,0.0180479,0.0020475
[0:00:29.700000],16.8868,1.71476,152.672,0.235863,0.020306,0.146139,0.960647,-0.264937,-0.341198,0.0514736,0.0013731,0.0154758,0.0193547,-0.0147385,0.017709,0.00432815
[0:00:29.800000],16.9036,1.75724,153.201,0.231473,0.0193081,0.146456,0.961687,-0.263647,-0.341959,0.0476128,0.00170949,0.017009,0.00517091,-0.012571,0.0176167,0.00443921
[0:00:29.900000],17.0073,1.78626,153.752,0.226863,0.0185646,0.147475,0.962644,-0.280658,-0.318904,0.0454695,-0.000487436,0.00955429,-0.00067803,-0.0109787,0.0165543,0.00376489
[0:00:30],16.9546,1.79409,154.259,0.222615,0.0177428,0.147127,0.963704,-0.251956,-0.335846,0.0505761,-0.0222212,-0.00132615,-0.0103084,-0.0124602,0.0141981,0.00191038
[0:00:30.100000],16.9106,1.73475,154.81,0.217912,0.0174514,0.14673,0.964844,-0.283997,-0.333595,0.040678,-0.013445,-0.00118306,-0.0199818,-0.01259,0.0121713,-0.000974449
[0:00:30.200000],16.9396,1.79025,155.319,0.213684,0.0163848,0.147152,0.965744,-0.274912,-0.324183,0.0351777,-0.0039615,0.0015937,-0.0108537,-0.011453,0.0107774,-0.00227628
[0:00:30.300000],16.9851,1.69,155.774,0.209724,0.0167311,0.14742,0.966564,-0.265247,-0.335213,0.0518385,-0.0161083,0.0330528,-0.00475245,-0.0120664,0.0137128,-0.00260257
[0:00:30.400000],16.9155,1.64021,156.175,0.206285,0.0165097,0.146802,0.967402,-0.284548,-0.333814,0.0405356,-0.0374301,0.0733177,-0.00406669,-0.0154087,0.0215672,-0.00279551
[0:00:30.500000],17.0413,1.5903,156.734,0.20148,0.016436,0.147858,0.968255,-0.264972,-0.317915,0.0393212,0.00329745,0.0607718,0.0128698,-0.0129437,0.0267333,-0.000731226
[0:00:30.600000],17.0755,1.53006,157.199,0.197472,0.0164048,0.148111,0.969042,-0.285371,-0.302929,0.0403844,-0.0170396,0.0614906,0.00421762,-0.0134834,0.0313134,-7.90941e-05
[0:00:30.700000],17.1839,1.47723,157.749,0.192738,0.0163236,0.149018,0.969857,-0.287758,-0.302119,0.0462888,-0.00733531,0.0483125,-0.00560551,-0.0126733,0.0335535,-0.000807334
[0:00:30.800000],17.1982,1.39999,158.257,0.188336,0.0163408,0.149086,0.970711,-0.279828,-0.307068,0.0415092,-0.00450075,0.0131511,0.0160072,-0.0115963,0.030865,0.00140839
[0:00:30.900000],17.2313,1.33032,158.767,0.183922,0.0163213,0.149328,0.97152,-0.267677,-0.307994,0.0498917,-0.0202706,-0.00884632,0.0030772,-0.0127394,0.025632,0.0016283
[0:00:31],17.3121,1.25119,159.217,0.179985,0.016532,0.149954,0.972157,-0.288894,-0.29873,0.0392947,-0.00980844,-0.0165301,0.00341784,-0.0123532,0.0200761,0.00186411
[0:00:31.100000],17.4199,1.22152,159.761,0.175315,0.0162369,0.150901,0.972869,-0.287337,-0.305471,0.04253,-0.0458776,0.0149879,0.0127477,-0.0167708,0.0194056,0.0032983
[0:00:31.200000],17.4356,1.19055,160.208,0.171482,0.0159356,0.151052,0.973533,-0.290746,-0.303174,0.0523069,-0.0350745,0.0164512,0.0131972,-0.0191828,0.0190163,0.00460272
[0:00:31.300000],17.4568,1.19351,160.765,0.16674,0.0152055,0.151312,0.974328,-0.289352,-0.304442,0.0433241,0.0185545,0.0226604,0.0053979,-0.01421,0.0194965,0.0047075
[0:00:31.400000],17.5798,1.16203,161.179,0.163165,0.0151022,0.152368,0.97477,-0.291427,-0.303258,0.0518333,0.0410437,0.0096601,0.00329933,-0.00692895,0.0182003,0.00452194
[0:00:31.500000],17.5738,1.11276,161.571,0.159763,0.0149914,0.1523,0.975346,-0.294606,-0.284973,0.0502593,0.00394679,0.0187004,-0.00470886,-0.00549581,0.0182662,0.00330556
[0:00:31.600000],17.6423,1.02124,162.133,0.154852,0.0151171,0.152834,0.976052,-0.272094,-0.303518,0.0425355,-0.00993437,0.00446523,-0.00923335,-0.0060807,0.0164476,0.00165325
[0:00:31.700000],17.7578,0.99013,162.617,0.150667,0.0148876,0.15384,0.976552,-0.27398,-0.292623,0.0471066,-0.00192067,-0.0086299,0.00812217,-0.00553251,0.013143,0.00250569
[0:00:31.800000],17.6778,0.901809,163.061,0.146777,0.0149424,0.153104,0.97726,-0.300912,-0.305095,0.0477562,-0.0133927,-0.000746669,0.00477481,-0.00656828,0.0113127,0.0028047
[0:00:31.900000],17.6987,0.884773,163.602,0.142139,0.0143912,0.15333,0.977918,-0.30011,-0.289392,0.0510975,-0.00688932,0.0144964,0.00957816,-0.00661059,0.0117323,0.00369727
[0:00:32],17.7206,0.899285,164.075,0.138113,0.0136598,0.153592,0.978464,-0.281363,-0.298909,0.0448695,0.00325573,0.0546912,-0.000254512,-0.00531046,0.0173931,0.00317653
[0:00:32.100000],17.6775,0.764252,164.446,0.134774,0.0142658,0.153111,0.978996,-0.275724,-0.292893,0.054924,0.0404432,0.0369044,-0.0173909,0.0007187,0.0199642,0.000466267
[0:00:32.200000],17.6552,0.781897,164.893,0.130973,0.0134911,0.152995,0.979541,-0.29391,-0.2783,0.0439445,0.0396358,0.0391786,-0.0209244,0.00584699,0.0224962,-0.00235247
[0:00:32.300000],17.5995,0.753612,165.302,0.127444,0.0131247,0.152535,0.980083,-0.276642,-0.281831,0.0435226,-0.0112343,0.0148694,-0.0265216,0.00359611,0.0214912,-0.00553735
[0:00:32.400000],17.6609,0.568812,165.787,0.123049,0.0141272,0.152918,0.980571,-0.284323,-0.274684,0.0415528,-0.039764,0.00401832,-0.0154314,-0.00211765,0.0191887,-0.00684112
[0:00:32.500000],17.7346,0.410914,166.289,0.118532,0.0148849,0.153448,0.981033,-0.281097,-0.289956,0.0407619,-0.0557266,-0.00569915,0.00837609,-0.00918194,0.0159091,-0.00483588
[0:00:32.600000],17.6776,0.302522,166.709,0.114795,0.0151929,0.152905,0.981557,-0.292083,-0.277292,0.0415465,-0.0586157,0.0195563,0.0240812,-0.015696,0.0163897,-0.00102535
[0:00:32.700000],17.7119,0.282452,167.135,0.111115,0.0148298,0.153236,0.981935,-0.305495,-0.282075,0.0417885,-0.0589375,0.0436099,0.021575,-0.0213942,0.0199767,0.0019528
[0:00:32.800000],17.7211,0.213889,167.6,0.107039,0.0148045,0.15331,0.982376,-0.305471,-0.276614,0.0521467,-0.0149216,0.0451627,0.0190381,-0.0205412,0.0232955,0.00420422
[0:00:32.900000],17.6685,0.122658,167.998,0.103507,0.0150059,0.152827,0.982827,-0.309627,-0.261581,0.0546712,0.012377,0.0517241,0.0128191,-0.0162035,0.0270417,0.00533943
[0:00:33],17.6739,-0.0153976,168.399,0.0998837,0.0156602,0.152805,0.983195,-0.295496,-0.258436,0.0418799,0.0496853,0.025286,-0.00109031,-0.00752101,0.0268103,0.00449216
[0:00:33.100000],17.7426,-0.184135,168.909,0.0952666,0.0164843,0.153322,0.983559,-0.294718,-0.266535,0.0501229,0.05096,0.037032,-0.0240201,0.000185297,0.0281573,0.000734973
[0:00:33.200000],17.8116,-0.281213,169.445,0.0905266,0.0166551,0.153912,0.983912,-0.291346,-0.261087,0.0477502,0.0222519,0.0309531,-0.0209159,0.00309312,0.0285257,-0.00211806
[0:00:33.300000],17.7695,-0.318381,169.947,0.0861669,0.0162676,0.153594,0.984359,-0.291873,-0.252636,0.0467967,-0.0103586,0.0455131,-0.0105829,0.00132052,0.0307642,-0.0032335
[0:00:33.400000],17.7869,-0.463817,170.35,0.0825107,0.0169898,0.153694,0.984645,-0.286904,-0.254141,0.0403147,-0.0541031,0.0505989,-0.00791613,-0.00598289,0.0333779,-0.00385055
[0:00:33.500000],17.8323,-0.63797,170.856,0.0779167,0.0178377,0.154037,0.98495,-0.298732,-0.237308,0.0384478,-0.0344118,0.0194429,0.000835863,-0.0097291,0.0315416,-0.003233
[0:00:33.600000],17.879,-0.690286,171.411,0.0730673,0.0175709,0.154488,0.985256,-0.306115,-0.244733,0.0510981,-0.0157339,-0.00765043,0.016192,-0.0105204,0.0263771,-0.000673285
[0:00:33.700000],17.9424,-0.684117,171.865,0.0691618,0.0169438,0.155106,0.985452,-0.307777,-0.239988,0.0419769,0.00507559,0.00279678,0.0289802,-0.00846523,0.0232698,0.00323429
[0:00:33.800000],17.967,-0.706051,172.305,0.0653426,0.0165505,0.155369,0.985678,-0.307061,-0.253396,0.0473018,0.0139239,-0.0038624,0.0255796,-0.00551491,0.0196945,0.00617883
[0:00:33.900000],17.9836,-0.771241,172.722,0.0616656,0.0165548,0.155534,0.985889,-0.282808,-0.253849,0.0564989,0.0187184,0.00960081,0.0171133,-0.00232159,0.0183644,0.00761971
[0:00:34],18.0174,-0.838387,173.142,0.0579478,0.0165782,0.155849,0.986064,-0.298262,-0.23524,0.0484573,0.0112397,0.037023,-0.0066879,-0.000534551,0.0208231,0.00573433
[0:00:34.100000],17.9947,-0.908974,173.6,0.0539152,0.0165521,0.155684,0.986319,-0.301142,-0.231623,0.0554327,-0.00705314,0.0222685,-0.00816319,-0.00139354,0.0210136,0.003903
[0:00:34.200000],18.0034,-0.981962,174.125,0.0492929,0.0164703,0.1558,0.986544,-0.303515,-0.248057,0.047443,-0.0187102,0.0223877,-0.0183461,-0.00367544,0.0211947,0.00097114
[0:00:34.300000],17.9779,-1.11171,174.573,0.0452595,0.0169674,0.155589,0.986762,-0.298516,-0.227724,0.0499083,-0.0122524,0.0169876,-0.018878,-0.00480566,0.0206403,-0.00164446
[0:00:34.400000],17.9239,-1.21491,175.116,0.0404508,0.0170995,0.155164,0.987036,-0.294396,-0.235179,0.0393989,0.031891,0.0355641,0.0011207,3.00246e-05,0.0226069,-0.00128009
[0:00:34.500000],17.8409,-1.37154,175.5,0.0369435,0.0179016,0.15445,0.987271,-0.302256,-0.238847,0.0517088,0.0173982,0.0506284,0.00333027,0.0023187,0.0262994,-0.000672559
[0:00:34.600000],17.8288,-1.48602,176.049,0.0320589,0.018144,0.154394,0.987446,-0.297662,-0.218366,0.0485779,0.0153287,0.0571105,0.0126517,0.00403309,0.0303595,0.00108324
[0:00:34.700000],17.8904,-1.54262,176.467,0.0283684,0.0180832,0.154974,0.987469,-0.291874,-0.213523,0.0455762,-0.00555241,0.0331484,0.015515,0.00276997,0.030727,0.00298498
[0:00:34.800000],17.9601,-1.75839,176.957,0.0238366,0.0192931,0.155597,0.987468,-0.286727,-0.21251,0.0550254,-0.00598631,0.0314829,0.00819608,0.00161611,0.0308266,0.00367167
[0:00:34.900000],17.9076,-1.83043,177.376,0.0201408,0.0193361,0.155198,0.987612,-0.30367,-0.221697,0.047213,0.00487242,-0.00473257,-0.0204502,0.00204521,0.0261408,0.000493027
[0:00:35],17.8325,-1.94836,177.899,0.0154813,0.019633,0.154616,0.987782,-0.29291,-0.208955,0.0499265,0.00801803,-0.0104962,-0.018046,0.00283228,0.021313,-0.00194994
[0:00:35.100000],17.8016,-2.14363,178.278,0.0119542,0.0208008,0.154384,0.987843,-0.303091,-0.217622,0.0515261,0.0133003,0.00718535,-0.00605932,0.00421169,0.0194513,-0.00249145
[0:00:35.200000],17.7225,-2.3648,178.656,0.0084146,0.0221921,0.153742,0.987949,-0.287417,-0.214003,0.0398972,-0.00866448,0.0191306,-0.00350229,0.00251494,0.0194091,-0.00262466
[0:00:35.300000],17.6708,-2.641,179.117,0.00407587,0.0239515,0.153357,0.987995,-0.286556,-0.215643,0.0398843,-0.00535573,0.0501627,0.0104549,0.00147779,0.0234616,-0.000901108
[0:00:35.400000],17.732,-2.84327,179.637,-0.000694336,0.0249981,0.15398,0.987881,-0.294111,-0.199946,0.0524547,-0.0143872,0.0517783,0.00248481,-0.000612808,0.027193,-0.00045493
[0:00:35.500000],17.7495,-2.96214,-179.797,-0.00573588,0.0252611,0.154251,0.987816,-0.30369,-0.205026,0.055272,-0.0248493,0.0502047,-0.00318488,-0.00380656,0.0302254,-0.000814668
[0:00:35.600000],17.6458,-3.04794,-179.224,-0.0107695,0.0252384,0.153483,0.987894,-0.311045,-0.194919,0.0417355,-0.0366011,0.0294928,-0.0176012,-0.00812804,0.0301288,-0.0030267
[0:00:35.700000],17.5732,-3.22667,-178.798,-0.0146627,0.0262175,0.15296,0.987899,-0.286572,-0.182491,0.0456057,0.00024385,0.0101243,-0.0187036,-0.00702484,0.0274928,-0.00509252
[0:00:35.800000],17.5922,-3.34575,-178.356,-0.0186382,0.0266504,0.153234,0.987778,-0.300549,-0.200288,0.039655,0.00840775,-0.00580786,-0.00480548,-0.00499122,0.0231046,-0.0050547
[0:00:35.900000],17.4409,-3.54684,-177.923,-0.0226054,0.0278334,0.152053,0.987845,-0.313696,-0.197283,0.0406489,-0.00694584,0.0065264,0.0128668,-0.00524879,0.02092,-0.0026931
[0:00:36],17.2988,-3.65481,-177.389,-0.0273123,0.0280895,0.150973,0.987885,-0.300684,-0.190308,0.0433192,-0.0351636,0.0306654,0.0120039,-0.00919079,0.0222042,-0.000756408
[0:00:36.100000],17.2634,-3.91094,-176.852,-0.032271,0.0295987,0.150847,0.98771,-0.295318,-0.190791,0.0554409,-0.03705,0.0686527,-0.00394352,-0.0128619,0.0283249,-0.00117639
[0:00:36.200000],17.2721,-4.14328,-176.368,-0.0367407,0.0309618,0.151099,0.987474,-0.314499,-0.182245,0.044467,-0.00110129,0.0813558,-0.0175793,-0.0113122,0.035313,-0.00333787
[0:00:36.300000],17.2627,-4.28539,-175.854,-0.0413527,0.0315115,0.151192,0.98726,-0.315508,-0.16995,0.0383667,-0.007727,0.0645223,-0.0153942,-0.0108397,0.0391621,-0.00492659
[0:00:36.400000],17.2236,-4.46319,-175.383,-0.0456343,0.0324364,0.151037,0.987065,-0.314696,-0.158365,0.0387576,-0.00957566,0.0582565,-0.00889122,-0.0106732,0.0416782,-0.00544902
[0:00:36.500000],17.2736,-4.73864,-174.89,-0.0502527,0.0341367,0.151698,0.986682,-0.303497,-0.162928,0.0415807,-0.00873497,0.0400791,0.0088535,-0.0104178,0.0414675,-0.00356432
[0:00:36.600000],17.2916,-4.87164,-174.418,-0.0544894,0.034649,0.15204,0.986386,-0.30581,-0.165428,0.0402727,0.00481332,0.00671531,0.0294908,-0.00841069,0.0368881,0.00079151
[0:00:36.700000],17.1791,-5.1149,-173.883,-0.0593737,0.036091,0.151331,0.986162,-0.315166,-0.152891,0.0535347,0.00742483,0.0172008,0.0246368,-0.00632398,0.0342938,0.00393371
[0:00:36.800000],17.1757,-5.31739,-173.479,-0.0631075,0.0373023,0.151515,0.985856,-0.311728,-0.153105,0.0444248,0.0279173,0.024491,0.013664,-0.00181185,0.033002,0.00521592
[0:00:36.900000],17.0623,-5.50062,-172.928,-0.0680442,0.0382172,0.150804,0.985602,-0.316865,-0.158458,0.0497481,0.039861,0.0285753,0.0127034,0.00367957,0.0324187,0.00620257
[0:00:37],16.9154,-5.81595,-172.477,-0.0722717,0.0404287,0.149848,0.985359,-0.292556,-0.154089,0.0493994,0.0619735,0.029452,0.0157757,0.0113612,0.0320277,0.00746407
[0:00:37.100000],16.7969,-5.97335,-171.947,-0.0769886,0.041168,0.149101,0.985084,-0.291017,-0.13562,0.051148,0.0337342,0.0272161,-0.000341802,0.0143094,0.0313937,0.00643545
[0:00:37.200000],16.7514,-6.26485,-171.391,-0.0821056,0.0429844,0.149076,0.984597,-0.29223,-0.150882,0.0513781,0.00319592,0.0335539,0.00990549,0.0128449,0.0316784,0.00689272
[0:00:37.300000],16.6434,-6.44899,-170.847,-0.0869694,0.0439403,0.148465,0.984229,-0.29872,-0.142698,0.0558197,-0.0362191,0.0312311,-0.00788581,0.00637955,0.0316194,0.00494528
[0:00:37.400000],16.5689,-6.62456,-170.374,-0.0912133,0.0448958,0.148121,0.983854,-0.294928,-0.133793,0.051513,-0.0435094,0.0235073,-0.0107349,-0.000194541,0.0305505,0.00287904
[0:00:37.500000],16.5305,-6.88426,-169.802,-0.0964176,0.04642,0.148193,0.983276,-0.31182,-0.138129,0.0426167,-0.0221853,0.0226772,-0.0220144,-0.00309237,0.029513,-0.000401276
[0:00:37.600000],16.4461,-7.1359,-169.247,-0.101447,0.0479371,0.147876,0.982745,-0.299882,-0.133829,0.0548617,0.00284921,0.0315953,-0.0220957,-0.00230942,0.0297874,-0.00326005
[0:00:37.700000],16.3147,-7.31625,-168.771,-0.105686,0.048992,0.147086,0.982364,-0.311672,-0.128483,0.0422719,-0.01052,0.00925857,-0.00696272,-0.00339136,0.0270822,-0.00374797
[0:00:37.800000],16.2594,-7.48258,-168.185,-0.110882,0.0497197,0.146995,0.981768,-0.29502,-0.12874,0.0461456,-0.00937351,0.0283104,0.00760537,-0.00417966,0.027244,-0.00225189
[0:00:37.900000],16.1746,-7.74823,-167.699,-0.11532,0.0514592,0.146703,0.981211,-0.307001,-0.128198,0.042054,0.00680193,0.0485684,0.00891319,-0.00273256,0.030054,-0.000780614
[0:00:38],16.0903,-7.90422,-167.278,-0.119068,0.0523446,0.146306,0.980776,-0.301702,-0.122666,0.0495739,0.0116496,0.0458537,0.0122513,-0.000837366,0.032136,0.000936653
[0:00:38.100000],16.0726,-8.15094,-166.766,-0.123717,0.0538248,0.146611,0.980074,-0.319882,-0.118483,0.0535454,0.0114546,0.0663465,0.021308,0.000782401,0.0366441,0.00362108
[0:00:38.200000],15.9439,-8.33047,-166.311,-0.127754,0.054923,0.145893,0.979603,-0.294052,-0.101635,0.0481153,0.00241412,0.0442908,0.00173874,0.000997421,0.0376517,0.00337303
[0:00:38.300000],15.9339,-8.58713,-165.809,-0.132329,0.0564923,0.146297,0.978846,-0.294516,-0.105927,0.0497385,0.0102859,0.0281174,-0.00164982,0.0022214,0.0363954,0.00271115
[0:00:38.400000],15.8153,-8.75802,-165.367,-0.136232,0.0575313,0.145674,0.978342,-0.299662,-0.105728,0.0535182,0.000951766,0.025985,-0.00152398,0.0020541,0.0350235,0.00215307
[0:00:38.500000],15.8159,-8.9505,-164.816,-0.141144,0.0584762,0.146155,0.977518,-0.312258,-0.0942442,0.0481584,0.0118319,0.00653243,0.0131296,0.00334256,0.0312691,0.0035995
[0:00:38.600000],15.7357,-9.22999,-164.276,-0.146021,0.0602766,0.14605,0.976708,-0.299863,-0.115226,0.0485852,-0.0170513,0.0253755,0.0115871,0.000655169,0.0304925,0.00465206
[0:00:38.700000],15.7199,-9.39211,-163.839,-0.149904,0.061126,0.146324,0.976025,-0.301435,-0.0902429,0.0553613,-0.00658305,0.0325863,-0.000477133,-0.000298643,0.0307684,0.00397617
[0:00:38.800000],15.5361,-9.71321,-163.26,-0.155079,0.0633752,0.145439,0.975205,-0.296707,-0.0899979,0.0565632,-0.0020654,0.00583241,0.00041207,-0.000531457,0.0274825,0.00350651
[0:00:38.900000],15.419,-9.88954,-162.64,-0.160474,0.0642553,0.144996,0.974341,-0.298275,-0.101955,0.0539677,-0.00300283,0.0132329,0.00640198,-0.000857121,0.0256048,0.00388806
[0:00:39],15.3878,-10.1428,-162.142,-0.164958,0.0658279,0.145323,0.973438,-0.317338,-0.0801161,0.0469986,-0.0152287,0.0142193,0.000302183,-0.00275093,0.0241044,0.00341553
[0:00:39.100000],15.1398,-10.2432,-161.686,-0.168791,0.0664697,0.143606,0.972992,-0.304475,-0.103573,0.0522796,0.00157266,-0.0159119,-0.00411696,-0.00218119,0.0188313,0.00242294
[0:00:39.200000],15.0675,-10.5329,-161.215,-0.173032,0.0684548,0.143642,0.972103,-0.297302,-0.0978645,0.0574748,0.0161026,0.0169275,0.00675199,0.000228143,0.0185804,0.0029934
[0:00:39.300000],15.0059,-10.7935,-160.741,-0.177274,0.0701724,0.14375,0.9712,-0.301039,-0.0774606,0.0561819,0.0252622,0.0261302,0.0046406,0.00352699,0.0195753,0.00321046
[0:00:39.400000],14.8408,-11.0445,-160.268,-0.18142,0.0719752,0.142984,0.970415,-0.304426,-0.0938001,0.0515556,0.011606,0.0268357,0.00371523,0.0045916,0.020532,0.00327698
[0:00:39.500000],14.7454,-11.3422,-159.717,-0.18631,0.0739704,0.142941,0.969344,-0.29701,-0.089766,0.0518689,-0.00446451,0.0695321,-0.00509637,0.00339824,0.026989,0.00217358
[0:00:39.600000],14.5105,-11.5999,-159.122,-0.191433,0.0758056,0.141714,0.968384,-0.296779,-0.0706392,0.0573962,0.00116172,0.0577368,0.00540661,0.00310352,0.0310408,0.00259961
[0:00:39.700000],14.4399,-11.7326,-158.551,-0.196331,0.0763452,0.141692,0.967364,-0.301855,-0.075883,0.0523602,0.00807654,0.0474933,0.0182145,0.00375884,0.0332088,0.00465726
[0:00:39.800000],14.3487,-11.9618,-158.096,-0.200309,0.0778847,0.141575,0.966442,-0.30162,-0.0653211,0.0589341,0.000964658,0.0672206,0.0121917,0.00339064,0.0376907,0.0056501
[0:00:39.900000],14.2509,-12.2211,-157.689,-0.203909,0.0797503,0.14143,0.965558,-0.293289,-0.0508959,0.0550448,0.00882915,0.0387659,-0.0101949,0.00410729,0.0378324,0.00356214
[0:00:40],14.0617,-12.5009,-157.265,-0.207586,0.0819371,0.140574,0.964716,-0.300195,-0.0646022,0.0603967,0.0209328,0.0273377,-0.0145206,0.00632447,0.0364494,0.0011793
[0:00:40.100000],13.8591,-12.7672,-156.801,-0.211575,0.0839921,0.139632,0.963809,-0.295636,-0.0614966,0.0567049,0.00497296,0.0193316,-0.00500172,0.00614637,0.0341937,0.000364796
[0:00:40.200000],13.6655,-13.0209,-156.233,-0.216408,0.0858089,0.13884,0.96269,-0.296901,-0.0415212,0.0492518,-0.0198794,-0.00563755,0.00173803,0.00271685,0.028945,0.000545753
[0:00:40.300000],13.4906,-13.3138,-155.721,-0.220809,0.0879954,0.138252,0.961577,-0.290159,-0.0566707,0.0492587,-0.0351755,0.0159422,0.000208884,-0.00227639,0.0272316,0.000501362
[0:00:40.400000],13.3834,-13.5714,-155.142,-0.225785,0.0896781,0.138244,0.960267,-0.301246,-0.0514225,0.060777,-0.00821426,0.0430666,0.00549359,-0.00305885,0.0293182,0.00115921
[0:00:40.500000],13.1741,-13.7489,-154.602,-0.230274,0.0909419,0.137229,0.959227,-0.310971,-0.0543301,0.0600034,0.000322088,0.0490643,0.00794469,-0.00261333,0.0319202,0.00205336
[0:00:40.600000],13.0427,-13.949,-154.139,-0.234196,0.0923377,0.136859,0.958196,-0.305085,-0.0449527,0.0560399,0.00893762,0.0480738,0.0107397,-0.00109121,0.0340489,0.00319799
[0:00:40.700000],12.9291,-14.1649,-153.57,-0.23901,0.0937084,0.136767,0.956887,-0.298852,-0.0254784,0.0486254,-0.00549141,0.0336337,-0.00999035,-0.00167104,0.0339942,0.00146011
[0:00:40.800000],12.8333,-14.415,-153.038,-0.243548,0.0953744,0.136873,0.955561,-0.285381,-0.0306771,0.0614606,0.0136663,0.0261495,-0.00859436,0.000350033,0.0329604,0.000135184
[0:00:40.900000],12.6606,-14.6081,-152.502,-0.247999,0.0967261,0.136252,0.954369,-0.304635,-0.0311234,0.0543156,-0.0106274,0.0266303,0.00657257,-0.00109651,0.0321263,0.000983468
[0:00:41],12.5469,-14.7706,-152.021,-0.25201,0.0977651,0.13603,0.953243,-0.307501,-0.0411179,0.0603366,-0.0124421,0.0173786,-0.00534619,-0.00259157,0.0301829,0.000149381
[0:00:41.100000],12.3442,-15.0129,-151.51,-0.256245,0.0996367,0.135265,0.952029,-0.308474,-0.035042,0.0480262,0.0226704,0.00489911,-0.00296594,0.000737312,0.0268512,-0.000261139
[0:00:41.200000],12.1665,-15.3434,-150.947,-0.260961,0.102137,0.134953,0.950526,-0.286454,-0.00677189,0.0602183,0.0367924,0.0466377,-0.00179777,0.00548846,0.0294585,-0.000463628
[0:00:41.300000],11.9736,-15.5746,-150.488,-0.264728,0.103972,0.134242,0.949385,-0.304443,-0.0227215,0.055038,0.0534795,0.039991,0.0196899,0.0118125,0.0308464,0.0021921
[0:00:41.400000],11.7551,-15.8602,-150.002,-0.268715,0.106294,0.133476,0.948115,-0.281531,-0.024773,0.0499284,0.00935952,0.0407942,0.00922135,0.0114892,0.0321573,0.00311837
[0:00:41.500000],11.4542,-16.0214,-149.49,-0.272752,0.107755,0.13181,0.94703,-0.282039,-0.0232721,0.0662714,0.00991372,0.0264303,0.0118753,0.0112816,0.0314026,0.00427231
[0:00:41.600000],11.4264,-16.2458,-149.044,-0.276522,0.109175,0.132487,0.945678,-0.299595,0.00724779,0.0590666,-0.0140968,0.0409435,-0.00858736,0.00793738,0.0326599,0.00257774
[0:00:41.700000],11.1474,-16.4841,-148.462,-0.281172,0.111163,0.13127,0.944244,-0.288327,-0.0148582,0.0600331,-0.00137653,0.0770744,-0.00260425,0.00671004,0.0385126,0.00189488
[0:00:41.800000],10.9043,-16.6629,-147.938,-0.285335,0.112649,0.130181,0.942969,-0.29797,0.00437984,0.0514621,-0.0171216,0.055017,-0.00320098,0.00356965,0.0406874,0.00122338
[0:00:41.900000],10.6708,-16.9068,-147.315,-0.290326,0.114551,0.129435,0.941318,-0.275556,0.0022172,0.0602396,0.0144408,0.0306785,-0.00462551,0.00500219,0.0393685,0.000452646
[0:00:42],10.5837,-17.062,-146.739,-0.295028,0.115407,0.129659,0.939719,-0.303477,0.0145954,0.0537915,0.0196037,0.0432531,0.0103659,0.00692629,0.0398804,0.00175895
[0:00:42.100000],10.4211,-17.2223,-146.288,-0.298624,0.116643,0.129163,0.938498,-0.283507,0.0170449,0.0621044,0.0149544,0.0328019,0.00305094,0.0079842,0.0389476,0.0019292
[0:00:42.200000],10.2455,-17.342,-145.655,-0.30367,0.117379,0.12866,0.936855,-0.290019,0.00966021,0.0608464,0.0121867,0.0130162,-0.00665532,0.00853798,0.0355305,0.000797983
[0:00:42.300000],10.0588,-17.5843,-145.179,-0.307447,0.119339,0.128219,0.935435,-0.279892,0.0172766,0.0552002,0.00464823,0.0182803,-0.0213813,0.00802541,0.0332574,-0.00212468
[0:00:42.400000],9.98625,-17.767,-144.633,-0.311882,0.120426,0.128652,0.933767,-0.284578,0.0301687,0.0559434,0.0325008,0.0303174,-0.00228011,0.0112506,0.03287,-0.00214516
[0:00:42.500000],9.80266,-17.9378,-144.078,-0.316263,0.121708,0.128174,0.932191,-0.280518,0.00543725,0.0544268,0.0249508,0.0369637,0.0153109,0.013056,0.0334094,0.000155106
[0:00:42.600000],9.61495,-18.1514,-143.539,-0.320502,0.123378,0.127772,0.930578,-0.287847,0.0369617,0.0547953,0.0336868,0.0211664,0.042722,0.0157746,0.0317961,0.00576434
[0:00:42.700000],9.52209,-18.448,-143.079,-0.324206,0.125553,0.128287,0.928931,-0.272864,0.0267863,0.061208,0.0108738,0.00973407,0.0365974,0.0151288,0.0288889,0.00982735
[0:00:42.800000],9.35554,-18.6752,-142.563,-0.328251,0.127307,0.128105,0.927296,-0.265211,0.0375243,0.0731711,0.0173431,0.0235274,0.0186789,0.0154206,0.0281824,0.0109938
[0:00:42.900000],9.08129,-18.923,-141.933,-0.333091,0.129416,0.127256,0.925393,-0.271929,0.0240317,0.0706459,-0.00559856,0.0509747,0.00767693,0.0126508,0.0311858,0.0105567
[0:00:43],8.91038,-19.0135,-141.442,-0.336876,0.130108,0.126678,0.924004,-0.282395,0.0300721,0.0666847,-0.00624028,0.0403503,-0.0161112,0.0101614,0.0323935,0.00704255
[0:00:43.100000],8.66926,-19.2422,-140.866,-0.341268,0.132046,0.126023,0.922205,-0.279697,0.0461033,0.0574812,-0.0269939,0.0520002,-0.0215899,0.0052653,0.0349771,0.00326952
[0:00:43.200000],8.46643,-19.3882,-140.308,-0.345541,0.133225,0.125447,0.920521,-0.267881,0.0527672,0.0646533,0.0116831,0.0488019,-0.0154558,0.006111,0.0367989,0.000801996
[0:00:43.300000],8.28214,-19.4942,-139.737,-0.349914,0.134019,0.124933,0.918822,-0.28177,0.0568952,0.066346,0.0245572,0.0177509,0.0113156,0.00854173,0.0342888,0.00218742
[0:00:43.400000],8.01608,-19.7619,-139.211,-0.353838,0.136426,0.124193,0.917064,-0.269203,0.0461886,0.0592836,0.00828036,-0.00367735,0.013192,0.00850729,0.0292859,0.00363754
[0:00:43.500000],7.84768,-20.0232,-138.761,-0.357238,0.138569,0.124146,0.915429,-0.279473,0.0459662,0.0683128,0.0186882,-0.00137459,0.0153421,0.00984887,0.0252456,0.00517991
[0:00:43.600000],7.69993,-20.2134,-138.16,-0.361855,0.139913,0.124257,0.913394,-0.257261,0.059384,0.0649653,0.0177815,0.0133178,0.0101494,0.0108942,0.0236738,0.00583476
[0:00:43.700000],7.40265,-20.4661,-137.597,-0.365968,0.142279,0.123339,0.911513,-0.278426,0.041032,0.0718886,0.021522,0.0374626,0.0219034,0.0122947,0.0254908,0.0079522
[0:00:43.800000],7.14202,-20.6013,-137.093,-0.369638,0.143659,0.122305,0.909953,-0.270076,0.068983,0.0647852,0.00943052,0.0342248,0.0140459,0.0119172,0.0266418,0.00875518
[0:00:43.900000],7.00202,-20.7829,-136.635,-0.373082,0.145076,0.122328,0.908319,-0.251739,0.0597925,0.0741597,0.0158937,0.0243435,-0.00186136,0.0124412,0.0263389,0.0073562
[0:00:44],6.64594,-20.9238,-136.031,-0.377397,0.146727,0.120715,0.906485,-0.273568,0.0610245,0.0718355,-0.00199723,0.0287668,0.000155592,0.0105386,0.0266588,0.00640734
[0:00:44.100000],6.4709,-21.0817,-135.459,-0.381673,0.147962,0.120564,0.904512,-0.262959,0.0698302,0.0737121,0.023907,0.0213301,0.0136612,0.0123002,0.0259567,0.00736322
[0:00:44.200000],6.2458,-21.1898,-134.986,-0.385097,0.149078,0.119747,0.902984,-0.260262,0.0601197,0.0661702,0.0191288,0.0154554,0.0156884,0.0132001,0.0245729,0.00846026
[0:00:44.300000],6.05267,-21.474,-134.446,-0.389037,0.151421,0.119849,0.90089,-0.260916,0.0753977,0.0723268,0.0402826,0.0256244,0.00386442,0.0167688,0.0247114,0.00785465
[0:00:44.400000],5.85663,-21.7088,-133.831,-0.393556,0.153305,0.119894,0.898599,-0.261125,0.0749952,0.0785618,0.0372824,0.0142308,0.0194376,0.019472,0.0233303,0.00938099
[0:00:44.500000],5.5621,-21.967,-133.284,-0.397372,0.15579,0.119176,0.896586,-0.243397,0.0678862,0.084028,-0.00502079,0.0327728,0.019955,0.0162445,0.0245746,0.0107744
[0:00:44.600000],5.36384,-22.1247,-132.689,-0.401706,0.157105,0.118966,0.89445,-0.250342,0.0850322,0.0691868,-0.0265057,0.0669882,0.00586424,0.0106111,0.0301636,0.0101273
[0:00:44.700000],4.96147,-22.3433,-132.054,-0.406035,0.159584,0.117449,0.892254,-0.25424,0.073509,0.0766916,-0.015802,0.0651536,-0.0114087,0.00713053,0.0347744,0.00728944
[0:00:44.800000],4.77927,-22.4792,-131.486,-0.410149,0.160715,0.117291,0.890188,-0.268517,0.0924451,0.0854608,-0.0119289,0.0617918,-0.00802864,0.00461898,0.0383346,0.00527091
[0:00:44.900000],4.4852,-22.5707,-130.946,-0.413891,0.161938,0.116088,0.88839,-0.261386,0.107047,0.0760442,0.023938,0.0295058,0.0149594,0.00716473,0.0371712,0.0065476
[0:00:45],4.32513,-22.7576,-130.509,-0.416972,0.163532,0.116124,0.886651,-0.256217,0.105319,0.0721552,0.0466349,-0.0158308,0.0180586,0.0123659,0.0301869,0.00806446
[0:00:45.100000],4.03666,-22.994,-129.915,-0.421043,0.165825,0.115586,0.884369,-0.237437,0.0901041,0.0804353,0.0505665,-0.00753748,0.0100895,0.0173998,0.0252158,0.0083313
[0:00:45.200000],3.83659,-23.1502,-129.454,-0.424234,0.16731,0.115274,0.882603,-0.249527,0.0894763,0.0850036,0.0442724,-0.0239068,0.0306172,0.0209409,0.0187427,0.011268
[0:00:45.300000],3.50722,-23.4576,-128.961,-0.427386,0.170418,0.114578,0.880576,-0.235412,0.0900592,0.0903841,0.0110985,0.0067501,0.0346496,0.0196439,0.0171624,0.0143491
[0:00:45.400000],3.30059,-23.5567,-128.496,-0.430592,0.171493,0.114047,0.878873,-0.252623,0.0945003,0.0803177,-0.0173266,0.024696,0.0171238,0.0147721,0.0181551,0.0147147
[0:00:45.500000],3.11611,-23.7466,-128.017,-0.433875,0.173175,0.114053,0.876925,-0.2368,0.111985,0.0917951,-0.0370407,0.045012,-0.000690787,0.00794454,0.0216942,0.0126847
[0:00:45.600000],2.81627,-23.8655,-127.417,-0.437937,0.174633,0.113114,0.874736,-0.241687,0.0952032,0.0942746,-0.00262196,0.0458857,-0.00881121,0.00655214,0.024882,0.00985207
[0:00:45.700000],2.56354,-23.9641,-126.945,-0.44109,0.175894,0.112281,0.873005,-0.252295,0.107809,0.0842236,-0.00260739,0.0523827,-0.0035329,0.00534515,0.0285059,0.00808828
[0:00:45.800000],2.24859,-24.1603,-126.45,-0.444248,0.178126,0.111395,0.871062,-0.254873,0.105314,0.0876661,0.0192159,0.0473922,0.000255256,0.00717297,0.0309946,0.00705608
[0:00:45.900000],2.0202,-24.3051,-126.036,-0.446936,0.179716,0.110861,0.869427,-0.244909,0.127296,0.085515,0.00807246,0.0337363,-0.0112647,0.0072915,0.0313559,0.00464187
[0:00:46],1.67453,-24.4978,-125.57,-0.449781,0.182085,0.10972,0.86761,-0.226975,0.123066,0.0864819,0.0320295,0.0227155,0.0074455,0.0105513,0.0302173,0.00501132
[0:00:46.100000],1.35861,-24.6624,-125.022,-0.453295,0.184056,0.108849,0.865472,-0.246739,0.124326,0.0932198,0.0442473,0.0178571,0.0192799,0.0149916,0.0285886,0.00689155
[0:00:46.200000],1.05724,-24.7432,-124.49,-0.456766,0.185359,0.107752,0.863505,-0.237277,0.119473,0.0877262,0.0280501,0.0383666,0.0197537,0.0167124,0.0298771,0.00858646
[0:00:46.300000],0.835918,-24.8222,-123.984,-0.46015,0.186365,0.107221,0.861555,-0.239018,0.121036,0.0879413,0.0248067,0.039903,0.0223217,0.017779,0.0311982,0.0103964
[0:00:46.400000],0.424701,-25.0449,-123.386,-0.46378,0.18914,0.106008,0.859151,-0.223987,0.133726,0.0981739,0.00210534,0.0719554,0.0177362,0.0157136,0.036569,0.0113636
[0:00:46.500000],0.0660889,-25.2291,-122.797,-0.467432,0.191434,0.105049,0.856778,-0.223175,0.155023,0.0971355,0.00747555,0.0780925,0.00927114,0.014628,0.0420407,0.0110879
[0:00:46.600000],-0.302884,-25.3377,-122.214,-0.471064,0.193224,0.103718,0.854546,-0.234594,0.147173,0.0977736,0.0107476,0.0817862,-0.00149963,0.0141167,0.0472782,0.00942916
[0:00:46.700000],-0.709371,-25.5533,-121.604,-0.474707,0.195955,0.10262,0.852038,-0.229386,0.14679,0.0952341,0.0203559,0.0325397,0.00321414,0.0149389,0.045336,0.00861018
[0:00:46.800000],-0.902892,-25.6852,-121.113,-0.477894,0.197296,0.102578,0.849949,-0.243118,0.164226,0.0957844,0.00202073,0.0141834,-0.00403901,0.0132366,0.0412309,0.00694334
[0:00:46.900000],-1.14078,-25.8745,-120.726,-0.480158,0.199343,0.102283,0.848229,-0.213439,0.163971,0.0936859,0.0159076,0.0212279,0.0116671,0.0135886,0.038595,0.00756581
[0:00:47],-1.37528,-26.0061,-120.337,-0.482486,0.200952,0.101786,0.846587,-0.211843,0.163722,0.0971519,-0.000465754,0.0221497,0.0258925,0.0117366,0.0364279,0.0099808
[0:00:47.100000],-1.69475,-26.0812,-119.723,-0.486372,0.202311,0.100831,0.84415,-0.233101,0.146498,0.109335,-0.00120573,-0.0195742,0.0195266,0.0100311,0.0290483,0.0112387
[0:00:47.200000],-1.95834,-26.195,-119.205,-0.489587,0.203813,0.1003,0.841991,-0.23696,0.173609,0.0936177,0.0070268,-0.00673781,0.0218976,0.00963521,0.0243326,0.0126433
[0:00:47.300000],-2.29541,-26.2943,-118.698,-0.492598,0.205539,0.0991654,0.839947,-0.218921,0.165364,0.109471,0.0213133,0.0088104,0.0159873,0.0111741,0.0222872,0.0130839
[0:00:47.400000],-2.71855,-26.3963,-118.093,-0.496142,0.207587,0.0976072,0.837537,-0.226682,0.153326,0.107864,0.0549411,0.00611783,0.00254548,0.0169415,0.0201565,0.0116952
[0:00:47.500000],-3.02546,-26.5019,-117.497,-0.499805,0.20918,0.0969194,0.835039,-0.205139,0.154474,0.0996469,0.0340017,0.011639,0.00276602,0.0191896,0.0190341,0.0105186
[0:00:47.600000],-3.23431,-26.6249,-117.014,-0.502786,0.210573,0.0968343,0.832906,-0.21359,0.181054,0.112991,0.0175077,0.015935,-0.0037393,0.0189679,0.0186257,0.00863975
[0:00:47.700000],-3.50629,-26.713,-116.536,-0.505642,0.212,0.0961375,0.830893,-0.208677,0.159186,0.103186,-0.00429065,0.0681568,-0.0134176,0.015903,0.0251526,0.00573315
[0:00:47.800000],-3.80257,-26.7934,-116.115,-0.508041,0.213535,0.0951387,0.82915,-0.221099,0.168514,0.103561,-0.0129499,0.0668133,0.0140777,0.012101,0.0306424,0.00683275
[0:00:47.900000],-4.16629,-26.9007,-115.664,-0.510475,0.215547,0.093844,0.82728,-0.220695,0.182407,0.107484,-0.0214456,0.0211779,0.0265469,0.00768038,0.0293953,0.00943057
[0:00:48],-4.4859,-27.0571,-115.176,-0.51318,0.21769,0.0931821,0.825117,-0.199812,0.186905,0.102745,-0.0111221,0.0275228,0.0164139,0.00520269,0.0291485,0.0103508
[0:00:48.100000],-4.63428,-27.1181,-114.807,-0.515465,0.21849,0.0930987,0.823489,-0.224015,0.192521,0.11745,0.0121302,0.0241702,0.0387209,0.00611556,0.0284925,0.0140893
[0:00:48.200000],-4.89615,-27.2293,-114.348,-0.518108,0.220085,0.0926168,0.821457,-0.220431,0.177274,0.11922,0.0187278,0.00190922,0.0203339,0.00777754,0.0249895,0.0149121
[0:00:48.300000],-5.31939,-27.3711,-113.856,-0.520609,0.222609,0.0912019,0.819352,-0.212803,0.174373,0.115075,0.0131238,0.0104792,0.0100271,0.00848204,0.0230774,0.0142684
[0:00:48.400000],-5.57254,-27.4912,-113.442,-0.522894,0.224278,0.0907675,0.817488,-0.214237,0.20382,0.111586,0.022425,0.0176629,0.016805,0.0103194,0.0223639,0.0146027
[0:00:48.500000],-5.95363,-27.676,-112.943,-0.525421,0.226922,0.0899128,0.815229,-0.19616,0.181154,0.127275,0.0334608,0.0459711,0.0160567,0.0133688,0.0254747,0.0147943
[0:00:48.600000],-6.31624,-27.8371,-112.449,-0.527966,0.229326,0.0890927,0.812999,-0.217082,0.200743,0.113367,-0.00323105,0.0317903,0.0292941,0.0111814,0.026307,0.016705
[0:00:48.700000],-6.70708,-27.9895,-112.02,-0.52998,0.231858,0.0879202,0.811096,-0.206492,0.195727,0.125479,-0.0314348,0.0283783,0.0176219,0.00556566,0.0265799,0.0168258
[0:00:48.800000],-6.98924,-28.016,-111.479,-0.533192,0.232936,0.0871525,0.808762,-0.207511,0.195258,0.131767,-0.0228262,0.0143533,-0.00496522,0.00182435,0.0249688,0.0139543
[0:00:48.900000],-7.29977,-28.0356,-111.098,-0.535209,0.234232,0.0858347,0.807194,-0.213611,0.212009,0.12355,0.00348385,0.0300724,-0.0120743,0.00204303,0.0256413,0.0105244
[0:00:49],-7.57574,-28.0113,-110.705,-0.53745,0.235063,0.0845787,0.805595,-0.216349,0.191776,0.122621,0.0482394,0.00977462,0.00316206,0.00813053,0.0235505,0.00955423
[0:00:49.100000],-7.95754,-28.1379,-110.173,-0.540189,0.237335,0.0836218,0.803193,-0.21482,0.218945,0.117608,0.0495115,0.0122363,0.000519839,0.0135835,0.0220596,0.00836373
[0:00:49.200000],-8.32445,-28.2671,-109.645,-0.542898,0.239567,0.0827949,0.800786,-0.192027,0.197221,0.122941,0.0455735,0.0255401,0.0137639,0.017799,0.0225182,0.00907533
[0:00:49.300000],-8.68897,-28.4504,-109.272,-0.544418,0.242273,0.081953,0.799024,-0.190753,0.211322,0.131193,0.0149577,0.0159021,0.02397,0.0174245,0.0216464,0.0110381
[0:00:49.400000],-9.04634,-28.5721,-108.849,-0.546392,0.244497,0.080976,0.797097,-0.193169,0.211028,0.130902,-0.0141774,0.0348983,0.0140222,0.0132602,0.0233926,0.0114313
[0:00:49.500000],-9.39251,-28.6964,-108.322,-0.549084,0.246618,0.0803303,0.794655,-0.202825,0.21225,0.128505,-0.0380967,0.0318082,0.0140846,0.00649268,0.0245016,0.0117809
[0:00:49.600000],-9.72496,-28.6602,-107.829,-0.55185,0.247629,0.0789078,0.792565,-0.210694,0.228124,0.127037,-0.0225871,0.0435508,0.0123178,0.00266071,0.0270118,0.0118517
[0:00:49.700000],-9.94799,-28.6458,-107.443,-0.554058,0.248344,0.0781274,0.790876,-0.206077,0.209294,0.1333,0.0166418,0.0183531,0.0294282,0.00450307,0.0258708,0.0141678
[0:00:49.800000],-10.2525,-28.7084,-106.985,-0.556435,0.249926,0.0773473,0.788783,-0.196782,0.232164,0.134146,0.0500302,0.00741846,0.033718,0.0105024,0.0234393,0.016744
[0:00:49.900000],-10.5221,-28.664,-106.544,-0.558965,0.250647,0.076229,0.786872,-0.197812,0.227319,0.142825,0.050896,0.0268071,0.0390424,0.0158252,0.0238831,0.0196824
[0:00:50],-10.9545,-28.7356,-105.997,-0.561628,0.252873,0.0748397,0.784393,-0.185724,0.220833,0.142754,0.0226751,0.018042,0.0281772,0.0167279,0.0231133,0.0208018
[0:00:50.100000],-11.2957,-28.757,-105.516,-0.56412,0.254378,0.0736854,0.782224,-0.191668,0.228241,0.146685,-0.0203522,0.0265621,0.00190292,0.0118417,0.0235678,0.0183114
[0:00:50.200000],-11.527,-28.7313,-105.071,-0.56669,0.255066,0.0729619,0.780207,-0.186147,0.228947,0.139666,-0.00841932,0.0284,-0.0186679,0.00917178,0.0242046,0.0134385
[0:00:50.300000],-11.8579,-28.7018,-104.61,-0.569148,0.256222,0.0715856,0.778165,-0.199917,0.25007,0.149911,-0.011389,0.039401,-0.0187301,0.00646239,0.0262071,0.00919947
[0:00:50.400000],-12.2424,-28.6736,-104.249,-0.57079,0.257728,0.0696363,0.77664,-0.199057,0.224138,0.138214,0.0192699,0.0263193,-0.002328,0.0081501,0.0262219,0.00768044
[0:00:50.500000],-12.401,-28.6614,-103.943,-0.572534,0.258254,0.0691881,0.77522,-0.195514,0.245209,0.133627,0.0364634,0.0154979,0.0029464,0.0118811,0.0248087,0.00705662
[0:00:50.600000],-12.7157,-28.7996,-103.562,-0.574112,0.260493,0.0686674,0.773348,-0.173399,0.249659,0.14014,0.0190815,0.0259543,0.00692634,0.0128299,0.0249597,0.00703945
[0:00:50.700000],-13.0649,-28.7601,-103.23,-0.575634,0.261794,0.0668554,0.771935,-0.195133,0.236509,0.150468,0.00848518,0.0194768,0.0189208,0.0122574,0.0242372,0.00860511
[0:00:50.800000],-13.3617,-28.7883,-102.912,-0.577039,0.263282,0.0657413,0.770474,-0.171943,0.248381,0.145815,-0.0170462,0.0356583,0.0218181,0.00839591,0.0257422,0.0103462
[0:00:50.900000],-13.6603,-28.8467,-102.563,-0.578571,0.264962,0.0648584,0.768822,-0.1978,0.253745,0.141256,-0.00660758,0.0225178,0.0120775,0.00641883,0.0253173,0.0105744
[0:00:51],-13.9813,-28.9022,-102.143,-0.580517,0.266703,0.0639838,0.766824,-0.195779,0.256139,0.146116,0.00895934,0.0349414,0.0146025,0.0067536,0.0265855,0.0111052
[0:00:51.100000],-14.3652,-28.8513,-101.685,-0.582794,0.268076,0.0622091,0.764762,-0.18426,0.248932,0.155133,0.0149103,0.0317405,0.0169297,0.00782845,0.0272648,0.0118727
[0:00:51.200000],-14.5229,-28.9076,-101.348,-0.584548,0.269052,0.0622586,0.763074,-0.181947,0.264209,0.144719,0.00746128,0.00310963,0.0265077,0.00778007,0.0240818,0.0138012
[0:00:51.300000],-14.7472,-28.9451,-100.977,-0.586406,0.270232,0.0618477,0.761262,-0.174096,0.262623,0.157914,0.0372205,0.0145167,0.0198368,0.0116596,0.0228213,0.0145965
[0:00:51.400000],-15.0343,-28.8344,-100.664,-0.588049,0.270842,0.0600658,0.75992,-0.187175,0.256849,0.157529,0.0216313,-0.00509548,0.00559885,0.0129736,0.0191426,0.0134109
[0:00:51.500000],-15.406,-28.8281,-100.285,-0.589699,0.272516,0.0584697,0.758166,-0.190497,0.260394,0.150669,0.0170944,-0.00566867,0.00453827,0.0135166,0.0158731,0.0122417
[0:00:51.600000],-15.6487,-28.7739,-100.034,-0.590899,0.273302,0.0571587,0.757047,-0.168062,0.256464,0.15861,0.0326784,-0.011361,-0.000489382,0.0160416,0.0122844,0.0105641
[0:00:51.700000],-15.8342,-28.7825,-99.6993,-0.592645,0.274147,0.0567826,0.755403,-0.166728,0.265584,0.156092,0.0306018,0.00276476,-0.00775832,0.0179603,0.0110299,0.00814964
[0:00:51.800000],-16.1127,-28.8006,-99.2981,-0.594578,0.275504,0.0560138,0.753446,-0.171827,0.247605,0.153625,0.0333221,0.0191918,0.00677856,0.0199846,0.0121054,0.00796897
[0:00:51.900000],-16.2592,-28.7067,-99.0578,-0.59602,0.275568,0.0550983,0.752349,-0.173258,0.26847,0.15685,-0.00731267,0.0183006,0.0111351,0.0163875,0.0129218,0.00838618
[0:00:52],-16.4965,-28.665,-98.6744,-0.598059,0.276365,0.0542287,0.7505,-0.165173,0.260154,0.153816,-0.0234956,0.0238512,0.0130596,0.0111319,0.014362,0.00900203
[0:00:52.100000],-16.8877,-28.7086,-98.3216,-0.599319,0.278511,0.052773,0.748803,-0.173226,0.264444,0.161806,-0.0205655,0.00791493,0.0193187,0.00695502,0.0135125,0.0103615
[0:00:52.200000],-17.1762,-28.7299,-98.0482,-0.600351,0.280026,0.0516778,0.747487,-0.169401,0.27191,0.160707,-0.042623,-0.00566843,0.00512513,0.000421904,0.0109849,0.00967148
[0:00:52.300000],-17.4328,-28.6971,-97.718,-0.601953,0.281024,0.0506269,0.745894,-0.18483,0.260666,0.161856,-0.0297886,-0.0258136,0.00709557,-0.00355907,0.00613581,0.00933204
[0:00:52.400000],-17.7816,-28.6679,-97.2766,-0.604034,0.28249,0.0492772,0.743746,-0.175777,0.263573,0.162872,0.0108096,-0.0282958,0.0101219,-0.00166565,0.0015986,0.00943613
[0:00:52.500000],-18.0603,-28.6291,-96.9609,-0.605486,0.283592,0.0480262,0.742226,-0.185741,0.25449,0.159421,0.0354657,-0.0101531,0.0148616,0.00322732,5.00267e-05,0.0101511
[0:00:52.600000],-18.4048,-28.4636,-96.6666,-0.606935,0.284298,0.0455665,0.740926,-0.181983,0.258841,0.160312,0.0343644,0.0291905,0.0184776,0.00733039,0.00389,0.0112483
[0:00:52.700000],-18.669,-28.3496,-96.3856,-0.608371,0.284905,0.0438961,0.739615,-0.154905,0.263536,0.173643,0.0443303,0.0434413,0.025492,0.012206,0.00910185,0.0131252
[0:00:52.800000],-18.9865,-28.3152,-96.0846,-0.609605,0.286273,0.0423987,0.738157,-0.159808,0.259822,0.167563,0.0276446,0.0445065,0.0118385,0.0142404,0.0137673,0.0129557
[0:00:52.900000],-19.3304,-28.2286,-95.6882,-0.611507,0.287446,0.0406724,0.736223,-0.176055,0.287084,0.170879,0.00805852,0.0646508,-0.000720146,0.0134258,0.0204724,0.0111536
[0:00:53],-19.6336,-28.2318,-95.3889,-0.612657,0.288979,0.0394983,0.734728,-0.167742,0.278471,0.1666,-0.0187379,0.0457749,0.00205256,0.00918747,0.0238067,0.00995428
[0:00:53.100000],-19.8394,-28.1059,-95.1336,-0.614086,0.289249,0.0380824,0.733503,-0.157809,0.270267,0.173772,0.00206318,0.0111058,0.00369487,0.00824867,0.022133,0.00912945
[0:00:53.200000],-20.2,-27.9688,-94.827,-0.615476,0.290277,0.0357435,0.732048,-0.166623,0.28881,0.161617,0.025187,-0.0019533,0.0148624,0.0104807,0.018959,0.00988491
[0:00:53.300000],-20.4678,-27.8687,-94.496,-0.61716,0.291027,0.0342816,0.730401,-0.170755,0.29315,0.173576,-0.00805911,0.00422549,-0.00147661,0.00803763,0.0170175,0.00838775
[0:00:53.400000],-20.7678,-27.6868,-94.1793,-0.618871,0.291488,0.0320959,0.728867,-0.160378,0.27335,0.17956,-0.0163558,0.0236001,0.00082,0.00482321,0.017885,0.00739051
[0:00:53.500000],-21.0467,-27.5629,-93.9126,-0.620168,0.292199,0.0302651,0.727557,-0.153945,0.274685,0.167528,0.00734589,0.00464854,-0.0110685,0.00515563,0.0161407,0.00495808
[0:00:53.600000],-21.304,-27.4755,-93.5197,-0.622223,0.292984,0.0291153,0.725531,-0.175603,0.295071,0.168859,0.019375,-0.0154202,-0.00356867,0.00702938,0.0119818,0.00383447
[0:00:53.700000],-21.6151,-27.2952,-93.2567,-0.623549,0.293565,0.0267401,0.724248,-0.174823,0.293436,0.165003,0.01144,0.0195386,0.00333791,0.00761058,0.0129776,0.00376904
[0:00:53.800000],-21.9838,-27.291,-92.9267,-0.624695,0.295474,0.0252356,0.722536,-0.146071,0.280387,0.175579,0.0202836,0.0330499,0.0179914,0.00928057,0.0156226,0.00564318
[0:00:53.900000],-22.1779,-27.1916,-92.7514,-0.625554,0.295923,0.0238668,0.721655,-0.155393,0.281829,0.168896,0.0143665,0.0117212,0.0313658,0.00995076,0.0151085,0.00903276
[0:00:54],-22.5185,-27.0298,-92.4051,-0.627268,0.296786,0.021644,0.71988,-0.163377,0.288799,0.180642,0.0222892,0.0174278,0.0326746,0.0115767,0.0154141,0.0121482
[0:00:54.100000],-22.7029,-26.8122,-92.1461,-0.628977,0.296505,0.0198398,0.718556,-0.157245,0.306941,0.181075,0.0175657,0.0285071,0.0143134,0.0123659,0.0171395,0.0124335
[0:00:54.200000],-22.9866,-26.6121,-91.8757,-0.630453,0.296877,0.0175482,0.717167,-0.151622,0.293683,0.174081,0.00787993,0.0134759,0.00825069,0.0117747,0.0166567,0.0118823
[0:00:54.300000],-23.3453,-26.4248,-91.531,-0.632162,0.297738,0.0150618,0.71536,-0.163163,0.291595,0.184954,0.00847332,-0.00359867,-0.0010567,0.0113397,0.0139876,0.0101773
[0:00:54.400000],-23.6527,-26.3757,-91.3486,-0.632627,0.299133,0.0133202,0.714401,-0.139141,0.29829,0.184017,0.0065813,0.000725423,-0.00883678,0.0107127,0.0122399,0.0076717
[0:00:54.500000],-23.8692,-26.2603,-91.2032,-0.633269,0.29966,0.0116472,0.71364,-0.146918,0.291739,0.171198,-0.0191349,-0.00032506,0.00170159,0.0067795,0.0105842,0.00688499
[0:00:54.600000],-24.103,-26.1351,-90.9812,-0.634366,0.300225,0.0100075,0.712453,-0.167539,0.297431,0.185782,-0.0051412,0.0387177,0.00975556,0.00520866,0.0142915,0.00726326
[0:00:54.700000],-24.3349,-25.9102,-90.7673,-0.635675,0.300227,0.00774989,0.711312,-0.159558,0.30536,0.174412,0.00466341,0.0326801,0.00214009,0.00513681,0.0167146,0.00658816
[0:00:54.800000],-24.5143,-25.9009,-90.5885,-0.636338,0.301158,0.00704947,0.710332,-0.142444,0.303987,0.185156,0.000190843,0.0291441,0.00122155,0.00448505,0.0183525,0.00588098
[0:00:54.900000],-24.6514,-25.656,-90.4349,-0.637572,0.300538,0.00509782,0.709504,-0.160933,0.299091,0.182714,0.0462477,0.0286293,-0.000940328,0.00998831,0.0197067,0.0049821
[0:00:55],-24.7787,-25.5538,-90.1846,-0.639054,0.300665,0.00433881,0.708121,-0.139855,0.322168,0.183034,0.0330651,0.0210098,-0.0154851,0.0130292,0.0198785,0.00228504
[0:00:55.100000],-25.0227,-25.3475,-89.9737,-0.640258,0.300867,0.00211346,0.706957,-0.150946,0.304701,0.174217,0.00775499,0.00875433,-0.000781911,0.0123342,0.0184126,0.0018809
[0:00:55.200000],-25.298,-25.2627,-89.7186,-0.641329,0.301931,0.00056467,0.705534,-0.147656,0.311587,0.176834,-0.00113871,-0.0162337,0.0110388,0.0105588,0.0138471,0.00308768
[0:00:55.300000],-25.4746,-25.1465,-89.5771,-0.64204,0.302274,-0.000868308,0.704739,-0.133918,0.312891,0.184756,0.0182856,-0.0195283,0.0203707,0.011577,0.00944905,0.00536514
[0:00:55.400000],-25.6661,-25.073,-89.4233,-0.642673,0.302942,-0.00209428,0.703872,-0.153509,0.311828,0.180629,-0.00780109,0.00030708,0.017929,0.00902349,0.00824437,0.00702074
[0:00:55.500000],-25.8763,-24.8151,-89.2518,-0.643852,0.302698,-0.00453045,0.702888,-0.143325,0.301428,0.188727,0.000831129,0.0548122,0.0208021,0.00794395,0.0143808,0.00883677
[0:00:55.600000],-26.1563,-24.648,-88.946,-0.645427,0.303364,-0.00647477,0.701139,-0.146962,0.305158,0.190431,-0.0202133,0.0346566,-0.00315106,0.00423354,0.0170527,0.00725708
[0:00:55.700000],-26.288,-24.5331,-88.7818,-0.646386,0.303483,-0.00756073,0.700192,-0.136899,0.329253,0.177668,-0.00865748,0.0465843,-0.0178911,0.00253483,0.0209442,0.00394319
[0:00:55.800000],-26.5392,-24.2943,-88.5564,-0.647728,0.303605,-0.00998591,0.698868,-0.155869,0.331642,0.186445,0.0131107,0.0339824,-0.00773124,0.00392846,0.0226623,0.0024048
[0:00:55.900000],-26.6879,-24.1434,-88.3725,-0.648854,0.303635,-0.0113466,0.697789,-0.146448,0.329298,0.188126,-0.0138392,-0.00202289,-0.00342758,0.00158714,0.0194094,0.00163624
[0:00:56],-26.9199,-23.8708,-88.2164,-0.64991,0.303473,-0.0140488,0.696827,-0.149976,0.308632,0.175799,0.0112554,-0.00856906,0.00783853,0.00286117,0.0157226,0.00245355
[0:00:56.100000],-27.087,-23.6868,-88.0261,-0.651109,0.30344,-0.0157116,0.695685,-0.13837,0.332105,0.183426,0.000583071,-0.0218642,0.0200346,0.00256097,0.0107696,0.00477028
[0:00:56.200000],-27.3539,-23.3754,-87.8002,-0.652595,0.303291,-0.0186838,0.694283,-0.144922,0.31767,0.192726,0.0160867,0.00606546,0.0123398,0.00434332,0.0101497,0.00576775
[0:00:56.300000],-27.5315,-23.1418,-87.6255,-0.653798,0.303059,-0.0207627,0.693192,-0.153689,0.320572,0.186263,0.00555079,0.0105673,0.0180992,0.00450244,0.0102047,0.00739271
[0:00:56.400000],-27.6812,-22.9299,-87.4947,-0.654751,0.302786,-0.0226528,0.692353,-0.132952,0.338327,0.187316,0.0163308,0.0330385,0.00751381,0.00606111,0.0132136,0.00740867
[0:00:56.500000],-27.9528,-22.6604,-87.2889,-0.655984,0.302917,-0.0254435,0.69103,-0.152359,0.312587,0.193359,0.0283392,0.00315133,-0.00946254,0.0089968,0.0118877,0.00518548
[0:00:56.600000],-28.2082,-22.5339,-87.0739,-0.656936,0.303743,-0.0272097,0.689694,-0.129628,0.332486,0.186551,0.0572607,0.0294906,-0.0107377,0.0153568,0.0142073,0.00308721
[0:00:56.700000],-28.3704,-22.359,-87.0116,-0.657341,0.303742,-0.0291231,0.68923,-0.135841,0.328447,0.187986,0.0374863,-0.00431623,0.00231006,0.0182729,0.0117664,0.0029848
[0:00:56.800000],-28.5041,-22.0813,-86.8052,-0.658958,0.303062,-0.031132,0.687897,-0.13056,0.342632,0.185633,0.00602482,-0.00791801,0.00596329,0.0166589,0.00917247,0.00337729
[0:00:56.900000],-28.7871,-21.8798,-86.5827,-0.660071,0.303666,-0.0335129,0.686449,-0.124004,0.3164,0.189604,-0.0113956,0.0219518,0.00839995,0.012962,0.0108565,0.00403915
[0:00:57],-28.9,-21.7454,-86.4007,-0.661215,0.303647,-0.0345568,0.685305,-0.125854,0.33954,0.187647,-0.0379609,0.0128071,0.00578483,0.00625168,0.0111135,0.00426919
[0:00:57.100000],-29.076,-21.5556,-86.1668,-0.662643,0.303716,-0.0361905,0.683809,-0.144993,0.3184,0.194676,-0.0269322,0.00887233,0.00129458,0.00187889,0.0108182,0.00387721
[0:00:57.200000],-29.1437,-21.3041,-86.0683,-0.66371,0.30279,-0.0379285,0.68309,-0.141517,0.341503,0.190392,-0.0240669,0.0174404,-0.00942254,-0.00154011,0.0116908,0.00212464
[0:00:57.300000],-29.3568,-21.1252,-85.9974,-0.664037,0.303088,-0.0401458,0.682513,-0.141352,0.347521,0.184814,-0.0155516,0.00641502,-0.0269976,-0.00338646,0.0109956,-0.00171292
[0:00:57.400000],-29.4761,-20.9791,-85.827,-0.665117,0.303058,-0.0413323,0.681404,-0.134395,0.330987,0.184543,0.00289192,-0.00736415,-0.0266137,-0.00255913,0.00857625,-0.00499421
[0:00:57.500000],-29.7181,-20.6873,-85.5878,-0.666659,0.302993,-0.043992,0.679757,-0.140743,0.323046,0.188823,0.0108995,0.00991498,-0.00343628,-0.000785625,0.00875266,-0.00478891
[0:00:57.600000],-29.827,-20.4169,-85.4234,-0.668049,0.302248,-0.0459249,0.678595,-0.139558,0.345434,0.177894,0.000623085,0.00208361,0.00798832,-0.000599993,0.00787385,-0.0031052
[0:00:57.700000],-30.0788,-20.1598,-85.2743,-0.668934,0.302407,-0.0486585,0.677461,-0.143772,0.327443,0.180251,0.0375421,0.00346382,0.0088167,0.00442616,0.00729272,-0.0015342
[0:00:57.800000],-30.1823,-19.821,-85.1369,-0.670349,0.301268,-0.0510678,0.676392,-0.133395,0.350312,0.189915,0.041549,0.0227416,0.0126839,0.009318,0.00932848,0.000339387
[0:00:57.900000],-30.4348,-19.4549,-84.9741,-0.671589,0.300872,-0.0544642,0.675071,-0.130306,0.338072,0.194916,0.0456382,0.0121548,0.00955773,0.0141041,0.00970092,0.00155413
[0:00:58],-30.695,-19.172,-84.7805,-0.672773,0.300989,-0.0572936,0.673605,-0.124913,0.338016,0.178722,0.0211298,0.0220355,0.0061364,0.0150299,0.0113263,0.00215795
[0:00:58.100000],-30.8381,-18.9369,-84.6864,-0.673553,0.30063,-0.0593891,0.672804,-0.111514,0.331391,0.187995,0.0101473,0.0538822,-0.0099179,0.0143865,0.0169341,0.000566665
[0:00:58.200000],-30.9692,-18.605,-84.6027,-0.674549,0.299685,-0.0620601,0.671986,-0.136303,0.362223,0.190134,-0.0115426,0.0408983,-0.0152719,0.0109697,0.0200919,-0.00152045
[0:00:58.300000],-31.0654,-18.4033,-84.3822,-0.676103,0.299303,-0.0633376,0.670473,-0.124846,0.351956,0.182917,-0.00468613,0.0587913,-0.00431936,0.00890665,0.0251915,-0.00188927
[0:00:58.400000],-31.2454,-18.1325,-84.2176,-0.677283,0.299025,-0.0656929,0.669178,-0.128904,0.362721,0.186,0.00390175,0.00853371,0.0104942,0.00824713,0.0229965,-0.000257454
[0:00:58.500000],-31.3084,-17.942,-84.0493,-0.678583,0.298488,-0.0668434,0.667986,-0.119333,0.359023,0.184503,0.0101066,-0.00828133,-0.0032089,0.00849217,0.0188748,-0.000646379
[0:00:58.600000],-31.5347,-17.5634,-83.925,-0.679674,0.297904,-0.0702647,0.666785,-0.12714,0.353089,0.183279,0.0212611,-0.0105261,-0.0027751,0.0101748,0.0150005,-0.00092689
[0:00:58.700000],-31.7674,-17.2222,-83.7602,-0.680885,0.297588,-0.0733783,0.665353,-0.118222,0.358849,0.188681,-0.0141116,0.00392964,-0.000556131,0.00697446,0.0135417,-0.000878033
[0:00:58.800000],-31.8441,-16.859,-83.6163,-0.682431,0.296224,-0.0757817,0.664109,-0.12327,0.343338,0.189364,-0.0031658,-0.0262738,-0.0126192,0.00563823,0.00829502,-0.00242522
[0:00:58.900000],-32.0099,-16.5876,-83.4066,-0.683892,0.295923,-0.0779437,0.662488,-0.126484,0.368994,0.178625,0.0175845,-0.00784973,-0.00755826,0.00721245,0.00616756,-0.00310163
[0:00:59],-32.116,-16.3237,-83.2296,-0.685295,0.295291,-0.0797968,0.661097,-0.120968,0.357642,0.18066,0.0287149,-0.0132414,-0.011529,0.0100459,0.00360995,-0.00421214
[0:00:59.100000],-32.2173,-16.0051,-83.1402,-0.686337,0.294286,-0.0822006,0.66017,-0.125332,0.342508,0.185624,0.034867,0.00306101,0.00111017,0.0133167,0.00353761,-0.0035108
[0:00:59.200000],-32.3669,-15.82,-82.9652,-0.687415,0.294338,-0.0838034,0.658822,-0.106662,0.344311,0.18042,0.0171842,0.0311073,0.0118348,0.0138264,0.00717059,-0.00148864
[0:00:59.300000],-32.5462,-15.508,-82.8203,-0.688552,0.293885,-0.0864711,0.65749,-0.106058,0.367357,0.186778,0.0118133,0.0352847,0.0244721,0.0135611,0.0108753,0.00193233
[0:00:59.400000],-32.6729,-15.253,-82.7339,-0.689347,0.293377,-0.0886194,0.656598,-0.119405,0.355507,0.182416,0.00286613,0.0583706,0.0128116,0.0121518,0.017134,0.00336594
[0:00:59.500000],-32.6842,-14.9331,-82.6191,-0.690753,0.291858,-0.0904531,0.655546,-0.110474,0.374701,0.191976,-0.0227114,-0.140028,0.025977,0.00755769,-0.00357598,0.0063455
[0:00:59.600000],-32.6969,-14.6158,-82.5716,-0.691759,0.290309,-0.0924514,0.654895,-0.124162,0.369053,0.185715,-0.0118087,-0.00431966,0.0112379,0.00500569,-0.00367397,0.00699019
[0:00:59.700000],-32.8343,-14.3574,-82.3822,-0.693113,0.28994,-0.0944224,0.653343,-0.0985556,0.361728,0.192555,0.0596888,0.288472,-0.0360763,0.0122115,0.0348234,0.00131513
[0:00:59.800000],-32.9961,-14.0625,-82.2807,-0.693987,0.28946,-0.0969901,0.652251,-0.109497,0.360928,0.182605,0.14086,0.532285,-0.0752001,0.0291641,0.100376,-0.00876762
[0:00:59.900000],-33.0792,-13.7342,-82.1127,-0.695515,0.28839,-0.0991588,0.65077,-0.106376,0.354864,0.184844,0.200158,0.6214,-0.130676,0.0516967,0.169034,-0.0248321
[0:01:00],-30.5102,-13.3075,-83.499,-0.694827,0.269397,-0.090578,0.660827,-0.0605603,0.643434,0.152135,0.232093,0.557678,-0.17835,0.0754682,0.220247,-0.0450618
[0:01:00.100000],-28.1457,-12.8888,-84.7869,-0.693638,0.251827,-0.0824573,0.670004,-0.0320806,0.617196,0.136079,0.227021,0.305423,-0.212068,0.0954391,0.231471,-0.067069
[0:01:00.200000],-25.8088,-12.3761,-85.9625,-0.692729,0.234042,-0.0744609,0.678277,-0.0108984,0.563449,0.123917,0.195909,-0.0372003,-0.19206,0.108678,0.196067,-0.0835396
[0:01:00.300000],-23.506,-11.7743,-87.1291,-0.69146,0.216006,-0.0668393,0.686302,-0.0034962,0.541037,0.0954576,0.152048,-0.389078,-0.165034,0.114393,0.11896,-0.0942784
[0:01:00.400000],-21.4358,-11.2633,-88.2012,-0.689675,0.199991,-0.0595233,0.693585,0.00255725,0.503996,0.0777252,0.0970539,-0.552144,-0.139197,0.112109,0.0305257,-0.100198
[0:01:00.500000],-19.4591,-10.7434,-89.2173,-0.687676,0.184567,-0.0524403,0.700384,0.0226337,0.466339,0.0734934,0.118357,-0.35127,-0.127652,0.112932,-0.0197853,-0.103815
[0:01:00.600000],-17.56,-10.2537,-90.2258,-0.685174,0.169845,-0.045362,0.707023,0.0252394,0.434404,0.0692437,0.137816,-0.314978,-0.102594,0.116211,-0.0586842,-0.103654
[0:01:00.700000],-15.716,-9.78366,-91.2137,-0.682339,0.155644,-0.0382163,0.713428,0.060113,0.386318,0.0487338,0.153713,-0.316428,-0.0694962,0.121153,-0.0926482,-0.0991532
[0:01:00.800000],-14.0018,-9.31238,-92.2148,-0.678921,0.142274,-0.0316627,0.719771,0.0499138,0.377133,0.0349095,0.144254,-0.29337,-0.0751335,0.124197,-0.119098,-0.095988
[0:01:00.900000],-12.3684,-8.88655,-93.1865,-0.675239,0.129746,-0.0250804,0.725836,0.0852066,0.341877,0.0405923,0.130781,-0.306778,-0.0782444,0.125065,-0.14383,-0.0936499
[0:01:01],-10.8017,-8.49652,-94.0341,-0.671968,0.117935,-0.0183696,0.731069,0.0881516,0.317924,0.0330608,0.135288,-0.311547,-0.0670525,0.126412,-0.165931,-0.090145
[0:01:01.100000],-9.24792,-7.98843,-94.9675,-0.668004,0.105511,-0.0123416,0.736705,0.102177,0.272246,0.0295795,0.117403,-0.316892,-0.0486387,0.125225,-0.185823,-0.0846755
[0:01:01.200000],-7.90582,-7.53969,-95.7304,-0.664649,0.0947783,-0.00699353,0.741254,0.109937,0.247868,0.0103664,0.101035,-0.304466,-0.0387471,0.122037,-0.201457,-0.0786234
[0:01:01.300000],-6.59334,-7.16631,-96.412,-0.661548,0.0847572,-0.00119635,0.745262,0.125494,0.210116,0.0118014,0.0852123,-0.256707,-0.0426199,0.117185,-0.208738,-0.073879
[0:01:01.400000],-5.32651,-6.84944,-97.089,-0.658237,0.0754201,0.00475162,0.749173,0.137392,0.198858,0.013186,0.0933496,-0.203257,-0.0193634,0.114044,-0.208016,-0.0666953
[0:01:01.500000],-4.15921,-6.52638,-97.7607,-0.654753,0.0666697,0.0101237,0.752992,0.133715,0.172217,0.0161089,0.075552,-0.193759,-0.0182917,0.108971,-0.206137,-0.0603169
[0:01:01.600000],-2.95362,-6.1948,-98.3824,-0.651486,0.0576935,0.0158278,0.756461,0.140077,0.162189,0.0115478,0.0607751,-0.193735,-0.0107063,0.10262,-0.204503,-0.0537795
[0:01:01.700000],-1.95434,-5.92777,-99.1015,-0.647314,0.0503826,0.0205841,0.760439,0.166684,0.136338,-0.00195235,0.0542069,-0.200228,-0.0296166,0.0962407,-0.203939,-0.0505954
[0:01:01.800000],-0.977441,-5.60379,-99.814,-0.643091,0.0428724,0.0249656,0.764342,0.155586,0.123972,0.00839806,0.0763232,-0.227398,-0.0190149,0.0936161,-0.207031,-0.0464339
[0:01:01.900000],0.0291828,-5.16405,-100.494,-0.639009,0.0344641,0.0290044,0.768039,0.164143,0.0785333,-3.51667e-05,0.101964,-0.226336,-0.00618496,0.0947162,-0.209575,-0.0411301
[0:01:02],1.01818,-4.79905,-101.194,-0.634645,0.0267073,0.0334336,0.771777,0.171893,0.0809865,0.00725967,0.116236,-0.215719,0.00519192,0.097552,-0.210384,-0.0350261
[0:01:02.100000],1.88877,-4.45679,-101.846,-0.630472,0.0197921,0.0372902,0.775222,0.190176,0.0468523,-0.00193155,0.109407,-0.181535,-0.000896411,0.0991141,-0.206583,-0.0305287
[0:01:02.200000],2.65902,-4.28886,-102.484,-0.626271,0.0146492,0.041496,0.77852,0.207808,0.0276515,0.00704491,0.109932,-0.179918,-0.0211744,0.10054,-0.203069,-0.029296
[0:01:02.300000],3.47521,-4.07314,-102.966,-0.623078,0.00891482,0.0458259,0.780922,0.214493,0.0170509,0.00112283,0.0591513,-0.167949,-0.00462742,0.0950857,-0.198441,-0.0260453
[0:01:02.400000],4.15631,-3.7826,-103.539,-0.61919,0.00347381,0.0488742,0.783867,0.217171,0.00415722,3.95775e-05,0.0275487,-0.182659,-0.00392043,0.0861861,-0.196361,-0.0231298
[0:01:02.500000],4.9494,-3.56886,-104.136,-0.615083,-0.00199809,0.0531574,0.786822,0.207832,-0.0167728,-0.00276506,0.0263044,-0.154509,0.0128244,0.0782952,-0.190846,-0.018392
[0:01:02.600000],5.54536,-3.37037,-104.753,-0.610789,-0.00625901,0.0562211,0.789925,0.221727,-0.0445258,-0.000803113,0.0453428,-0.156704,0.016607,0.0739529,-0.186347,-0.01378
[0:01:02.700000],6.08378,-3.2419,-105.252,-0.607276,-0.00975689,0.0592924,0.792369,0.220243,-0.0472805,0.0114327,0.0907316,-0.144135,0.0294019,0.0761639,-0.180785,-0.00808973
[0:01:02.800000],6.61773,-3.13102,-105.814,-0.603307,-0.0130479,0.0624627,0.795106,0.236274,-0.063559,0.00496978,0.0922413,-0.12525,0.0312381,0.0782825,-0.173467,-0.00290732
[0:01:02.900000],7.12395,-2.93264,-106.416,-0.599002,-0.0167502,0.0650231,0.798081,0.250047,-0.0709976,0.0111529,0.0735781,-0.09889,0.020887,0.0776626,-0.163639,0.000228165
[0:01:03],7.71367,-2.74022,-106.843,-0.595862,-0.0209203,0.0682059,0.800064,0.250044,-0.0870113,0.0108507,0.027596,-0.101452,0.0112307,0.0710651,-0.155445,0.00167801
[0:01:03.100000],8.25967,-2.62519,-107.342,-0.592223,-0.0242518,0.0715275,0.802379,0.261083,-0.0963902,0.0133619,0.0158594,-0.130705,0.0118364,0.0637904,-0.152185,0.00301663
[0:01:03.200000],8.74648,-2.43189,-107.749,-0.589182,-0.0278604,0.0740401,0.80427,0.241199,-0.107554,0.016789,-0.00917337,-0.113369,0.0156296,0.0541756,-0.14707,0.0046787
[0:01:03.300000],9.28633,-2.34878,-108.279,-0.585282,-0.0308612,0.0775458,0.806674,0.251071,-0.113321,0.0117946,-0.00436439,-0.117228,0.0148858,0.0464616,-0.143137,0.00602374
[0:01:03.400000],9.73148,-2.27023,-108.745,-0.581828,-0.0333607,0.0804155,0.808789,0.249877,-0.138015,0.0186997,0.0166473,-0.132244,0.0210579,0.0425328,-0.141702,0.00800486
[0:01:03.500000],10.1547,-2.24699,-109.204,-0.57845,-0.0353396,0.083426,0.810821,0.261879,-0.150232,0.0197141,0.0315427,-0.123911,0.00437122,0.0410846,-0.139357,0.00752604
[0:01:03.600000],10.6321,-2.15196,-109.687,-0.574823,-0.0380582,0.0864868,0.812954,0.252428,-0.144395,0.0182841,0.0612771,-0.126028,-0.00252221,0.0437454,-0.137601,0.00620194
[0:01:03.700000],10.8928,-2.07392,-110.116,-0.571637,-0.0395902,0.0880953,0.814952,0.262639,-0.174689,0.0244559,0.0433144,-0.101932,0.00760929,0.0436886,-0.132901,0.00638739
[0:01:03.800000],11.3199,-1.93979,-110.552,-0.568301,-0.0423313,0.0906274,0.816867,0.270228,-0.186104,0.0181803,0.0436735,-0.0791049,-4.46799e-05,0.0436867,-0.125812,0.00553981
[0:01:03.900000],11.6766,-2.00349,-111.057,-0.564606,-0.0432326,0.0936745,0.819036,0.273511,-0.178217,0.0121946,0.0380101,-0.0813144,0.0159928,0.0429386,-0.119948,0.00691725
[0:01:04],11.9556,-2.05714,-111.519,-0.561226,-0.0438354,0.0961089,0.821042,0.281487,-0.203055,0.0254917,0.0221166,-0.0972874,0.025838,0.0401948,-0.116962,0.00941051
[0:01:04.100000],12.3935,-2.0113,-111.997,-0.557597,-0.0458951,0.0992139,0.823031,0.270079,-0.193559,0.0307357,-0.0044471,-0.104865,0.0225821,0.0343121,-0.115368,0.0111462
[0:01:04.200000],12.7019,-1.97303,-112.444,-0.55423,-0.0472753,0.101428,0.824955,0.27862,-0.214684,0.0216281,0.0002112,-0.141422,0.0247475,0.0298185,-0.118801,0.0129385
[0:01:04.300000],13.0588,-1.9152,-112.915,-0.550642,-0.0489909,0.10392,0.826945,0.278286,-0.23138,0.034273,0.00914207,-0.12727,0.0156762,0.0270939,-0.119917,0.0132993
[0:01:04.400000],13.3385,-1.97573,-113.335,-0.547533,-0.049507,0.106409,0.82866,0.270761,-0.251014,0.0291968,0.00458285,-0.0809057,0.00893995,0.0241275,-0.114776,0.0127248
[0:01:04.500000],13.5633,-1.88581,-113.823,-0.543826,-0.0507733,0.107825,0.830839,0.280325,-0.251362,0.0275543,0.00694701,-0.0658468,0.0183296,0.0218636,-0.108329,0.0134634
[0:01:04.600000],13.691,-1.82894,-114.235,-0.540736,-0.0514021,0.108668,0.832705,0.283514,-0.255304,0.0353116,0.0015053,-0.042755,0.0062505,0.0191809,-0.0996878,0.0125129
[0:01:04.700000],13.9656,-1.81714,-114.611,-0.53787,-0.0524207,0.11078,0.834218,0.277494,-0.247263,0.035718,0.00563346,-0.0495317,-0.0156494,0.0173957,-0.0930785,0.00880183
[0:01:04.800000],14.1086,-1.81648,-115.082,-0.534369,-0.0526361,0.112035,0.836284,0.271463,-0.260791,0.0338804,-0.0169166,-0.0697868,-0.00107583,0.0128742,-0.0900093,0.00750021
[0:01:04.900000],14.3783,-1.83188,-115.649,-0.530111,-0.0532154,0.114338,0.838642,0.27919,-0.279021,0.0302234,-0.043408,-0.10607,-0.0088663,0.00545762,-0.0921256,0.00534352
[0:01:05],14.5037,-1.88761,-116.153,-0.526409,-0.052878,0.115745,0.8408,0.277058,-0.286441,0.0237196,-0.0468978,-0.0814178,-0.00944116,-0.00144149,-0.0907146,0.00339528
[0:01:05.100000],14.636,-1.80355,-116.647,-0.522643,-0.0536017,0.116565,0.842987,0.265952,-0.287345,0.0307859,-0.0404186,-0.0690039,-0.0074203,-0.00657768,-0.0878537,0.00197006
[0:01:05.200000],14.7646,-1.88016,-117.114,-0.519213,-0.0531426,0.118075,0.844923,0.254239,-0.299146,0.0384153,-0.0508047,-0.0550212,0.0095342,-0.0124057,-0.0835272,0.00296682
[0:01:05.300000],14.8399,-1.93693,-117.512,-0.516292,-0.0526512,0.119069,0.846603,0.256484,-0.306146,0.0260267,-0.0432491,-0.0718752,0.00989584,-0.01647,-0.0819918,0.00387989
[0:01:05.400000],15.0895,-2.01267,-117.991,-0.512698,-0.0527065,0.121472,0.84844,0.256139,-0.292945,0.0301234,-0.0319284,-0.0709677,0.021241,-0.0185071,-0.0805391,0.00616765
[0:01:05.500000],15.2603,-2.04883,-118.423,-0.509452,-0.0527387,0.123097,0.850158,0.254776,-0.325478,0.0296435,-0.0309592,-0.0602012,0.00890878,-0.0201479,-0.0778591,0.00652886
[0:01:05.600000],15.3837,-2.12379,-118.867,-0.506167,-0.0522475,0.124546,0.851937,0.242849,-0.328579,0.0428927,-0.0212159,-0.0506616,0.0150608,-0.0202887,-0.0742751,0.00765315
[0:01:05.700000],15.4725,-2.07298,-119.25,-0.50323,-0.0526004,0.12516,0.853564,0.248923,-0.331118,0.0332023,-0.00658767,-0.0545555,0.0179059,-0.0184832,-0.0716766,0.00900421
[0:01:05.800000],15.636,-2.05529,-119.759,-0.499338,-0.0528882,0.126537,0.855627,0.238489,-0.321051,0.043722,0.0104216,-0.059213,-0.00374458,-0.0146743,-0.0700342,0.00732424
[0:01:05.900000],15.7431,-1.97492,-120.304,-0.495134,-0.0533515,0.127244,0.857933,0.245201,-0.337206,0.0287369,0.0026167,-0.055741,-0.00401829,-0.0123958,-0.0681507,0.00582959
[0:01:06],15.8996,-2.07281,-120.784,-0.491563,-0.0527534,0.129057,0.859751,0.256128,-0.347873,0.0404648,-0.0163555,-0.0872449,0.0063912,-0.0129176,-0.0706668,0.00590359
[0:01:06.100000],15.8884,-2.03266,-121.169,-0.488634,-0.0525735,0.128979,0.861441,0.248833,-0.355931,0.0380678,-0.0293167,-0.0906681,0.0235323,-0.0150786,-0.0733025,0.00822661
[0:01:06.200000],15.974,-2.01825,-121.747,-0.484228,-0.0523925,0.129827,0.86381,0.23767,-0.36396,0.0371259,-0.0284876,-0.0563545,0.0215036,-0.0168455,-0.0710692,0.00997617
[0:01:06.300000],16.044,-1.93554,-122.137,-0.481175,-0.0528713,0.130189,0.86543,0.228554,-0.366491,0.0457773,-0.0371607,-0.00464497,0.0226293,-0.0195225,-0.0623162,0.0116435
[0:01:06.400000],16.068,-1.94761,-122.587,-0.477772,-0.0523678,0.130628,0.867278,0.23402,-0.368296,0.0475475,-0.0302573,0.00512727,0.00889152,-0.0209371,-0.0534289,0.0112809
[0:01:06.500000],16.2044,-1.93521,-123.095,-0.47385,-0.0524465,0.131842,0.869239,0.240279,-0.367836,0.0436846,-0.0176939,-0.0171915,0.00620758,-0.0205097,-0.0486537,0.0106124
[0:01:06.600000],16.3808,-1.92109,-123.692,-0.46922,-0.052589,0.133398,0.871502,0.230637,-0.357731,0.0448445,-0.0272213,-0.0422083,-0.00231428,-0.0213942,-0.0478044,0.00890896
[0:01:06.700000],16.4946,-1.92005,-124.186,-0.465402,-0.0524826,0.134486,0.873387,0.224308,-0.369339,0.0433915,-0.0592754,-0.0670439,-0.0133354,-0.0263859,-0.0503396,0.00597771
[0:01:06.800000],16.4975,-1.94786,-124.653,-0.461866,-0.0517331,0.134833,0.875253,0.218634,-0.386291,0.0467184,-0.0460488,-0.0931744,-0.0202862,-0.028977,-0.0559842,0.0025168
[0:01:06.900000],16.4275,-1.87889,-125.104,-0.458377,-0.0514511,0.134226,0.877195,0.216664,-0.398314,0.039925,-0.0331445,-0.0774163,-0.0156704,-0.0295262,-0.0588084,0.000120192
[0:01:07],16.4636,-1.84348,-125.565,-0.454788,-0.0513258,0.13457,0.879016,0.210751,-0.393859,0.0419762,-0.0230606,-0.0549953,-0.0195238,-0.0286742,-0.0583059,-0.00246838
[0:01:07.100000],16.3984,-1.80239,-126.129,-0.450447,-0.0507238,0.134159,0.881345,0.206524,-0.40089,0.034735,-0.00888191,-0.0142307,-0.00668799,-0.0260661,-0.0524979,-0.00302442
[0:01:07.200000],16.4424,-1.84685,-126.69,-0.446152,-0.049894,0.134917,0.88346,0.225096,-0.407236,0.0348536,-0.0315091,0.000342955,0.0085655,-0.0267833,-0.0455348,-0.00149716
[0:01:07.300000],16.443,-1.79977,-127.222,-0.441991,-0.0496334,0.134972,0.885554,0.198085,-0.392544,0.0440483,-0.035923,0.0002887,0.0187763,-0.0279877,-0.0394965,0.00117436
[0:01:07.400000],16.382,-1.79219,-127.717,-0.438183,-0.0488759,0.134684,0.887531,0.202124,-0.40782,0.0378841,-0.0368796,-0.0245607,0.014364,-0.0291594,-0.0375283,0.00291242
[0:01:07.500000],16.4926,-1.85035,-128.344,-0.433333,-0.0481034,0.136026,0.889747,0.206236,-0.401361,0.0465168,-0.0399255,-0.0207182,0.0112933,-0.0305781,-0.0353132,0.00401681
[0:01:07.600000],16.5045,-1.76931,-128.923,-0.428744,-0.0480928,0.136059,0.891963,0.181893,-0.406395,0.0436035,-0.0351784,-0.0395481,-0.0150185,-0.0311843,-0.0358712,0.00150845
[0:01:07.700000],16.4621,-1.74314,-129.419,-0.424863,-0.0475498,0.13584,0.89388,0.201088,-0.410206,0.039658,-0.00503713,-0.0172596,-0.0107016,-0.0277388,-0.0334187,-0.000100531
[0:01:07.800000],16.4033,-1.76535,-130.052,-0.419966,-0.0464092,0.135721,0.896269,0.19069,-0.422037,0.0398666,-0.0318571,-0.0100567,-0.00960286,-0.0282815,-0.0303402,-0.0013527
[0:01:07.900000],16.393,-1.69071,-130.662,-0.415111,-0.0462345,0.135617,0.898553,0.186255,-0.407592,0.0390453,-0.0561993,-0.0287395,-0.0141684,-0.0319603,-0.0301292,-0.00304148
[0:01:08],16.3654,-1.74247,-131.17,-0.411191,-0.0451266,0.135788,0.900384,0.18346,-0.419329,0.0339927,-0.0544745,-0.0165633,0.0070544,-0.0349271,-0.0283416,-0.0017111
[0:01:08.100000],16.3173,-1.70269,-131.669,-0.407239,-0.0446773,0.135465,0.902249,0.180858,-0.404126,0.0473477,-0.0920019,-0.0203439,0.010181,-0.0424481,-0.0272877,-0.000144019
[0:01:08.200000],16.2992,-1.6892,-132.184,-0.403177,-0.0441117,0.135475,0.904098,0.158938,-0.435259,0.033336,-0.0629999,-0.0415299,0.00215626,-0.0451563,-0.0291645,0.000159099
[0:01:08.300000],16.3698,-1.6907,-132.696,-0.399103,-0.0437393,0.136234,0.905808,0.153418,-0.426187,0.0408245,-0.0743627,-0.0565286,0.000722774,-0.049005,-0.0327704,0.000233377
[0:01:08.400000],16.3204,-1.65772,-133.311,-0.394219,-0.0430991,0.135962,0.908015,0.165041,-0.421152,0.0455084,-0.0461705,-0.0150709,-0.010789,-0.0486315,-0.030438,-0.00121909
[0:01:08.500000],16.2231,-1.56186,-133.806,-0.390225,-0.0429423,0.135052,0.909882,0.140102,-0.434489,0.0355889,-0.021194,-0.019621,-0.0224242,-0.0450159,-0.0290126,-0.00401338
[0:01:08.600000],16.1152,-1.62679,-134.38,-0.385771,-0.0413848,0.134624,0.911915,0.155266,-0.440608,0.0344851,-0.0227443,0.00434013,-0.0163315,-0.0420811,-0.0246176,-0.0056366
[0:01:08.700000],16.1675,-1.49839,-135,-0.380672,-0.0418551,0.13484,0.914002,0.134679,-0.429661,0.0374264,-0.0271331,-0.0130043,-0.0229355,-0.0401113,-0.0230872,-0.00791615
[0:01:08.800000],16.0957,-1.41726,-135.631,-0.37557,-0.0415256,0.134231,0.916215,0.155442,-0.421386,0.0302075,-0.0328742,0.012813,0.00884067,-0.0391577,-0.0183565,-0.00570803
[0:01:08.900000],16.1324,-1.28008,-136.263,-0.370349,-0.0420042,0.134313,0.918304,0.13684,-0.446188,0.0330168,-0.015676,-0.00207531,0.0201468,-0.0360634,-0.0162111,-0.00230103
[0:01:09],16.1851,-1.23264,-136.878,-0.365338,-0.0418311,0.134809,0.920244,0.129428,-0.4273,0.0363067,-0.0480204,-0.027538,0.027149,-0.037639,-0.0177037,0.00157973
[0:01:09.100000],16.221,-1.13037,-137.548,-0.359831,-0.04198,0.135022,0.922373,0.140124,-0.434871,0.0405967,-0.0326741,-0.0226369,0.0222215,-0.0369848,-0.0183537,0.00429978
[0:01:09.200000],16.1385,-1.05981,-138.171,-0.354756,-0.0415586,0.134366,0.924452,0.124021,-0.433006,0.0476193,-0.0617016,-0.0315983,0.00339181,-0.0402418,-0.020099,0.00418014
[0:01:09.300000],16.0344,-0.958188,-138.846,-0.349229,-0.0412716,0.133459,0.926697,0.12848,-0.454462,0.0353065,-0.0611582,-0.0140126,-0.0134217,-0.042998,-0.019297,0.00186066
[0:01:09.400000],16.021,-0.851889,-139.406,-0.344579,-0.0414398,0.133233,0.928462,0.108606,-0.438254,0.0452845,-0.0858562,-0.0297846,-0.00718018,-0.0486457,-0.020679,0.000669313
[0:01:09.500000],16.0065,-0.7618,-140.049,-0.339273,-0.0413812,0.13308,0.930438,0.116343,-0.437224,0.032498,-0.0751525,-0.00652188,-0.0143437,-0.0521386,-0.0188135,-0.00130902
[0:01:09.600000],15.963,-0.737018,-140.623,-0.334594,-0.0407886,0.13286,0.932189,0.0909578,-0.45859,0.0332606,-0.0304595,0.00823325,0.000617455,-0.0492818,-0.0152494,-0.00105516
[0:01:09.700000],15.9193,-0.537888,-141.32,-0.328707,-0.041478,0.132181,0.934347,0.0946161,-0.433698,0.0435112,-0.0251982,0.0228109,-0.00232849,-0.0461082,-0.010234,-0.00122296
