time,roll,pitch,yaw,qw,qx,qy,qz,linear_accel_x,linear_accel_y,linear_accel_z
[0:00:00],10.6148,0.584585,-1.28206e-05,0.995917,0.0924787,0.0050785,-0.00047169,0.0146583,0.0106879,0.0188621
[0:00:00.100000],10.0299,0.597261,-2.33233e-05,0.996284,0.0874039,0.00519146,-0.00045565,0.0179923,0.00254333,0.0120288
[0:00:00.200000],10.5817,0.807562,-5.25456e-05,0.995838,0.0921985,0.00701634,-0.00065006,0.0163524,0.00369637,0.0177715
[0:00:00.300000],10.8327,0.214864,-2.46162e-05,0.995657,0.0943811,0.00186642,-0.000177139,0.0188258,0.00468515,0.0145883
[0:00:00.400000],10.4396,0.223006,-5.62494e-05,0.995974,0.0909655,0.00193775,-0.000177474,0.0166485,0.000808895,0.0166799
[0:00:00.500000],10.8823,-0.769587,-3.17793e-05,0.995596,0.0948094,-0.00668482,0.000636309,0.0222131,0.00183767,0.014586
[0:00:00.600000],11.0011,-0.288235,-3.2779e-05,0.995516,0.0958435,-0.00250347,0.000240734,0.020421,0.00369278,0.0222917
[0:00:00.700000],10.3197,-0.624747,-5.49483e-05,0.996057,0.0899223,-0.00542921,0.000489659,0.0248629,-0.00554612,0.00969923
[0:00:00.800000],10.3583,-1.10568,-2.76327e-05,0.995994,0.0902552,-0.00960818,0.000870433,0.0247098,-8.31187e-05,0.00866467
[0:00:00.900000],10.0672,-1.2835,-6.98802e-05,0.996204,0.0877243,-0.0111559,0.000981762,0.0248418,0.000105023,0.0133822
[0:00:01],10.5733,-1.45152,-5.66607e-05,0.99579,0.0921202,-0.0126112,0.00116616,0.0244126,0.00278288,0.00874591
[0:00:01.100000],10.3052,-1.42706,-5.87552e-05,0.996005,0.0897911,-0.0124014,0.00111749,0.022642,-0.00104165,0.015457
[0:00:01.200000],10.8226,-1.86267,-6.6723e-05,0.995535,0.0942813,-0.0161798,0.00153171,0.033536,0.00635962,0.00957376
[0:00:01.300000],10.7602,-2.2268,-7.21316e-05,0.99553,0.0937335,-0.0193434,0.00182063,0.0313353,-0.00180525,0.0163686
[0:00:01.400000],10.4496,-2.45893,-4.86966e-05,0.995739,0.0910318,-0.0213649,0.00195278,0.0352218,-0.00371422,0.0173658
[0:00:01.500000],10.2028,-2.53391,-5.91016e-05,0.995919,0.0888858,-0.0220205,0.00196482,0.0327547,-0.00575593,0.00841117
[0:00:01.600000],10.588,-2.18806,-4.48558e-05,0.995676,0.0922381,-0.0190095,0.00176062,0.0259074,0.00217944,0.0112696
[0:00:01.700000],10.6038,-2.18459,-4.12245e-05,0.995664,0.0923756,-0.0189792,0.00176049,0.0389074,-0.00456192,0.00887787
[0:00:01.800000],10.6679,-2.25193,-4.5325e-05,0.995601,0.0929317,-0.0195632,0.00182568,0.0433481,-0.00174683,0.0209697
[0:00:01.900000],10.641,-2.25199,-6.52039e-05,0.995623,0.0926981,-0.0195641,0.00182096,0.0376098,-0.00995287,0.00904197
[0:00:02],10.2282,-2.51062,-5.97014e-05,0.995904,0.0891071,-0.0218178,0.0019516,0.0522037,-0.0171207,0.0231805
[0:00:02.100000],10.2939,-2.24303,-4.22141e-05,0.9959,0.0896829,-0.0194917,0.0017549,0.0432592,-0.00937267,0.0191055
[0:00:02.200000],10.3342,-2.01908,-4.23815e-05,0.995905,0.0900362,-0.0175452,0.00158583,0.0488131,-0.0132637,0.0091399
[0:00:02.300000],10.5179,-2.25078,-7.12917e-05,0.995722,0.0916288,-0.0195555,0.00179892,0.0786466,0.00460844,0.0180464
[0:00:02.400000],10.739,-2.15941,-4.09702e-05,0.995559,0.0935509,-0.0187584,0.00176233,0.0650423,-0.00566268,0.0183307
[0:00:02.500000],10.7658,-2.06806,-5.96296e-05,0.995551,0.0937843,-0.0179645,0.0016918,0.0857396,-0.0198644,0.0206792
[0:00:02.600000],10.6924,-2.00934,-3.99518e-05,0.99562,0.0931478,-0.0174555,0.00163275,0.0943932,-0.024595,0.0116774
[0:00:02.700000],10.7474,-1.61878,-4.54416e-05,0.995629,0.093631,-0.0140623,0.00132205,0.0868631,-0.0147755,0.00895804
[0:00:02.800000],10.8637,-1.11586,-4.74601e-05,0.995586,0.0946456,-0.00969268,0.000921021,0.104549,-0.0266336,0.0221936
[0:00:02.900000],11.1166,-0.558954,-5.84629e-05,0.99541,0.0968455,-0.0048543,0.000471773,0.11323,-0.0216548,0.0134346
[0:00:03],11.3255,-0.117289,0.248675,0.995241,0.0986631,-0.000804366,0.00226021,0.142301,-0.0263394,0.027222
[0:00:03.100000],11.5753,0.289545,0.432982,0.995017,0.100819,0.00289445,0.00350404,0.155322,-0.0446483,0.0223607
[0:00:03.200000],11.6653,0.793837,0.730855,0.994907,0.101562,0.00753854,0.00564022,0.142334,-0.0536768,0.0245895
[0:00:03.300000],11.9434,1.20729,1.11537,0.994606,0.103912,0.0114887,0.00858314,0.179273,-0.0341102,0.0143526
[0:00:03.400000],12.2049,1.54861,1.46939,0.994303,0.106104,0.014797,0.0113112,0.16765,-0.0440967,0.0180106
[0:00:03.500000],12.5998,2.36696,1.78062,0.993789,0.109364,0.0222285,0.0131739,0.193948,-0.0659168,0.0254568
[0:00:03.600000],12.8431,3.12559,2.02089,0.99338,0.111293,0.0290649,0.0144668,0.21523,-0.0606366,0.0223715
[0:00:03.700000],13.1524,3.9297,2.38867,0.992828,0.113709,0.0364341,0.0167674,0.242544,-0.0863221,0.0200291
[0:00:03.800000],13.5012,4.7273,2.64724,0.992195,0.116457,0.043652,0.0180722,0.241654,-0.0781939,0.0262957
[0:00:03.900000],13.872,5.49746,3.04346,0.991469,0.119301,0.0507846,0.0205412,0.264014,-0.0752004,0.0270302
[0:00:04],14.2594,6.35079,3.42902,0.990632,0.122211,0.0586396,0.0227694,0.292561,-0.0939853,0.0405922
[0:00:04.100000],14.6674,7.11627,3.73559,0.989766,0.125314,0.0656645,0.0243458,0.286786,-0.106423,0.0396022
[0:00:04.200000],15.1737,7.85024,4.11104,0.988735,0.129186,0.0725245,0.0264377,0.319385,-0.120014,0.0389524
[0:00:04.300000],15.6011,8.64864,4.45445,0.987704,0.132318,0.0798967,0.0281663,0.327133,-0.126357,0.0389316
[0:00:04.400000],16.0015,9.39762,4.79094,0.986679,0.135192,0.0868358,0.0298581,0.341691,-0.115107,0.0428443
[0:00:04.500000],16.5333,10.2483,5.19109,0.985353,0.139041,0.0947675,0.0318066,0.369809,-0.125984,0.0618122
[0:00:04.600000],16.9369,10.9894,5.5279,0.984215,0.141835,0.101654,0.0333912,0.39418,-0.135285,0.0596189
[0:00:04.700000],17.4727,11.8363,5.89304,0.982764,0.145624,0.109528,0.0348963,0.401588,-0.156177,0.058957
[0:00:04.800000],17.9755,12.5656,6.22315,0.981399,0.149172,0.116346,0.0362209,0.433865,-0.151749,0.0657775
[0:00:04.900000],18.5266,13.3925,6.66766,0.979789,0.152894,0.12417,0.0382653,0.436088,-0.170928,0.0730706
[0:00:05],19.1735,14.0851,7.18304,0.978083,0.15737,0.130993,0.0409233,0.456376,-0.195333,0.0863495
[0:00:05.100000],19.7009,14.9043,7.6819,0.976359,0.160674,0.138843,0.043304,0.467471,-0.203279,0.0976312
[0:00:05.200000],20.3149,15.6268,8.23038,0.974526,0.164646,0.145989,0.0460689,0.494468,-0.193425,0.101784
[0:00:05.300000],20.8442,16.434,8.75574,0.972671,0.167772,0.1538,0.0485256,0.514539,-0.201897,0.0968882
[0:00:05.400000],21.408,17.1203,9.25116,0.970851,0.171256,0.160571,0.0508028,0.521614,-0.231046,0.118218
[0:00:05.500000],22.0918,17.8457,9.76098,0.968743,0.175622,0.167758,0.0528829,0.521909,-0.23966,0.119678
[0:00:05.600000],22.8009,18.5495,10.2545,0.966565,0.180164,0.174766,0.0547312,0.557076,-0.2371,0.131861
[0:00:05.700000],23.5084,19.1875,10.8582,0.964355,0.184508,0.181413,0.0575373,0.550462,-0.26828,0.130732
[0:00:05.800000],24.1821,19.8579,11.3776,0.962143,0.188582,0.188197,0.0595375,0.562162,-0.26762,0.142266
[0:00:05.900000],24.8188,20.4657,11.9154,0.960011,0.192309,0.194484,0.0617896,0.571632,-0.265952,0.140884
[0:00:06],25.505,21.1405,12.5426,0.957605,0.196134,0.201519,0.0644868,0.590758,-0.285113,0.150831
[0:00:06.100000],26.2586,21.8563,13.1343,0.954989,0.200434,0.208888,0.0665823,0.607022,-0.29443,0.163891
[0:00:06.200000],26.9723,22.4914,13.7652,0.952472,0.204342,0.215651,0.0691451,0.627906,-0.312148,0.168159
[0:00:06.300000],27.7441,23.1124,14.2774,0.949889,0.208887,0.222136,0.070549,0.64455,-0.32723,0.177593
[0:00:06.400000],28.6212,23.6696,14.8891,0.947088,0.214119,0.228363,0.0726158,0.649448,-0.348413,0.201911
[0:00:06.500000],29.3662,24.2485,15.5223,0.944433,0.218095,0.234743,0.0749755,0.657094,-0.343758,0.203568
[0:00:06.600000],30.1488,24.9006,16.187,0.941527,0.222102,0.241818,0.077242,0.689355,-0.349143,0.222201
[0:00:06.700000],31.0311,25.3638,16.8571,0.93865,0.227132,0.247468,0.0797037,0.677449,-0.37307,0.216746
[0:00:06.800000],31.9563,25.8975,17.6003,0.935472,0.232139,0.25389,0.0823895,0.699275,-0.395345,0.23517
[0:00:06.900000],32.8492,26.5019,18.3658,0.932178,0.236595,0.260927,0.0850258,0.70758,-0.384882,0.239512
[0:00:07],33.7905,27.0286,19.0477,0.928905,0.241669,0.267233,0.0869629,0.732756,-0.403108,0.257313
[0:00:07.100000],34.7649,27.4521,19.7374,0.925657,0.247096,0.272791,0.0890646,0.740243,-0.419192,0.266181
[0:00:07.200000],35.7327,27.9109,20.5081,0.922249,0.252111,0.278829,0.0916304,0.742512,-0.442021,0.28322
[0:00:07.300000],36.7311,28.4271,21.3829,0.918544,0.256885,0.285604,0.0946719,0.756863,-0.427548,0.289685
[0:00:07.400000],37.7679,28.9309,22.2472,0.914718,0.261893,0.292326,0.0974396,0.763418,-0.461255,0.307655
[0:00:07.500000],38.72,29.3113,23.0257,0.911286,0.266609,0.297864,0.100003,0.763724,-0.45363,0.317285
[0:00:07.600000],39.7476,29.8258,23.7982,0.907433,0.271526,0.304507,0.101786,0.766651,-0.474694,0.327345
[0:00:07.700000],40.8471,30.317,24.5564,0.903402,0.276988,0.311024,0.10321,0.78347,-0.492277,0.34435
[0:00:07.800000],41.8111,30.7143,25.254,0.89984,0.281672,0.316585,0.104722,0.804825,-0.506699,0.354064
[0:00:07.900000],42.9876,31.1392,26.0718,0.895555,0.287517,0.322868,0.106381,0.78775,-0.52532,0.375832
[0:00:08],44.1442,31.5517,26.9941,0.891177,0.292819,0.329338,0.10882,0.802565,-0.528766,0.385176
[0:00:08.100000],45.2895,31.8613,27.7576,0.887063,0.298651,0.334671,0.110304,0.825777,-0.527747,0.394031
[0:00:08.200000],46.2768,32.1767,28.4696,0.883352,0.303303,0.339789,0.11173,0.834289,-0.557516,0.418682
[0:00:08.300000],47.4436,32.4923,29.2374,0.879064,0.30908,0.345259,0.112953,0.834306,-0.570311,0.433433
[0:00:08.400000],48.6017,32.7703,29.9829,0.874813,0.314867,0.35042,0.114067,0.827588,-0.577681,0.444662
[0:00:08.500000],47.3625,31.324,29.5593,0.88044,0.310864,0.337651,0.120126,0.801187,-0.577857,0.419266
[0:00:08.600000],46.3757,29.7619,29.2542,0.885293,0.308587,0.324458,0.126519,0.798459,-0.578492,0.396105
[0:00:08.700000],45.3423,28.3137,28.9449,0.890036,0.305466,0.311868,0.132337,0.773309,-0.578688,0.377228
[0:00:08.800000],44.4194,26.9882,28.723,0.894151,0.302482,0.300401,0.137862,0.744517,-0.573036,0.368287
[0:00:08.900000],43.5176,25.6714,28.6574,0.897911,0.29912,0.289311,0.144327,0.735088,-0.588327,0.338466
[0:00:09],42.5368,24.3769,28.6615,0.901652,0.294817,0.278339,0.151268,0.695818,-0.587166,0.325965
[0:00:09.100000],41.5925,23.0106,28.5789,0.905355,0.291112,0.26652,0.157483,0.701082,-0.561931,0.310085
[0:00:09.200000],40.6723,21.8097,28.5355,0.908693,0.286995,0.255974,0.163206,0.672245,-0.558869,0.286128
[0:00:09.300000],39.8935,20.5693,28.4669,0.911641,0.284083,0.245164,0.168373,0.658957,-0.581601,0.272517
[0:00:09.400000],39.023,19.4002,28.4434,0.914599,0.280101,0.234788,0.173704,0.623119,-0.557673,0.273994
[0:00:09.500000],38.2663,18.2155,28.5863,0.91693,0.27668,0.224777,0.180026,0.611542,-0.561162,0.258847
[0:00:09.600000],37.6244,17.1405,28.8173,0.918676,0.273721,0.21593,0.186366,0.595374,-0.56833,0.241507
[0:00:09.700000],36.8089,16.1886,28.9846,0.920781,0.269183,0.207534,0.192039,0.581839,-0.566515,0.235999
[0:00:09.800000],36.1771,14.9855,29.2185,0.92235,0.266603,0.197555,0.198527,0.57614,-0.563956,0.228506
[0:00:09.900000],35.48,14.0441,29.4291,0.92391,0.262903,0.189397,0.204075,0.542778,-0.557729,0.212844
[0:00:10],34.8277,13.0372,29.7538,0.925092,0.259543,0.180996,0.210546,0.528379,-0.536399,0.207076
[0:00:10.100000],34.1451,12.1399,30.0637,0.926245,0.255715,0.173305,0.216544,0.530184,-0.55084,0.194874
[0:00:10.200000],33.4918,11.2245,30.2842,0.927421,0.252313,0.165266,0.221725,0.495009,-0.540006,0.172669
[0:00:10.300000],32.9456,10.3799,30.6375,0.928014,0.249431,0.158237,0.227554,0.470884,-0.521965,0.169501
[0:00:10.400000],32.3377,9.5045,30.9799,0.928684,0.246165,0.150763,0.233376,0.47909,-0.531312,0.167017
[0:00:10.500000],31.7256,8.61961,31.3922,0.929133,0.242825,0.143299,0.239706,0.446688,-0.52622,0.151792
[0:00:10.600000],31.2017,7.81059,31.7412,0.929448,0.240127,0.136441,0.245144,0.44437,-0.51229,0.145594
[0:00:10.700000],30.6564,7.0205,32.215,0.929464,0.237094,0.129905,0.251501,0.429231,-0.513591,0.140987
[0:00:10.800000],30.1937,6.26875,32.6647,0.92929,0.234705,0.123763,0.257412,0.410767,-0.511653,0.147886
[0:00:10.900000],29.7563,5.50568,33.0733,0.929085,0.232631,0.117467,0.262927,0.387998,-0.501546,0.140102
[0:00:11],29.3946,4.7398,33.5199,0.92857,0.231176,0.11137,0.268622,0.385365,-0.490684,0.128515
[0:00:11.100000],28.9837,4.0858,33.9931,0.92806,0.229054,0.106082,0.274281,0.367637,-0.506233,0.120967
[0:00:11.200000],28.5829,3.52751,34.4764,0.927482,0.226798,0.101579,0.279759,0.373906,-0.503661,0.115149
[0:00:11.300000],28.0874,2.87328,34.9175,0.927101,0.224096,0.0959558,0.285134,0.354143,-0.491785,0.122209
[0:00:11.400000],27.7344,2.233,35.5213,0.925978,0.222418,0.0910862,0.291623,0.344566,-0.487738,0.107291
[0:00:11.500000],27.3719,1.67221,35.9752,0.925232,0.220616,0.0865168,0.296703,0.31568,-0.499498,0.11158
[0:00:11.600000],27.0138,1.26022,36.4929,0.924346,0.21844,0.0832558,0.301962,0.31722,-0.478583,0.099834
[0:00:11.700000],26.7132,0.655568,37.1039,0.922945,0.217214,0.0787505,0.308274,0.323087,-0.469893,0.109024
[0:00:11.800000],26.3727,0.16502,37.601,0.921939,0.215478,0.0748197,0.313439,0.31007,-0.482974,0.102653
[0:00:11.900000],26.0475,-0.404684,38.2226,0.920461,0.214041,0.0705065,0.319705,0.279985,-0.474943,0.0982726
[0:00:12],25.6445,-0.792318,38.9088,0.91901,0.211479,0.0675318,0.326163,0.271267,-0.473465,0.0927072
[0:00:12.100000],25.3149,-1.16455,39.5537,0.917497,0.209523,0.0647836,0.332186,0.274903,-0.459985,0.0970474
[0:00:12.200000],24.9433,-1.51435,40.2062,0.916005,0.207199,0.0620801,0.338222,0.260377,-0.481643,0.0868564
[0:00:12.300000],24.4874,-1.99442,40.7946,0.914704,0.204652,0.0579369,0.343979,0.264636,-0.478765,0.0899894
[0:00:12.400000],24.2142,-2.34054,41.521,0.912713,0.203141,0.055634,0.350482,0.250116,-0.472499,0.0972058
[0:00:12.500000],23.8133,-2.68627,42.239,0.910919,0.200653,0.0529013,0.356947,0.230172,-0.461977,0.0842885
[0:00:12.600000],23.4739,-2.97724,42.8775,0.90926,0.198558,0.0506281,0.362632,0.248293,-0.45902,0.0795825
[0:00:12.700000],23.111,-3.28163,43.4225,0.907886,0.19639,0.0479875,0.367581,0.228217,-0.455049,0.0817437
[0:00:12.800000],22.7283,-3.54645,44.12,0.906048,0.193907,0.0458322,0.373658,0.235017,-0.460215,0.0819033
[0:00:12.900000],22.4299,-3.91945,44.7728,0.904069,0.192485,0.0429911,0.379479,0.208501,-0.459648,0.0846329
[0:00:13],22.247,-4.21685,45.4972,0.901682,0.191737,0.0412382,0.385682,0.212845,-0.444659,0.078819
[0:00:13.100000],21.969,-4.47791,46.1154,0.899802,0.19019,0.0392621,0.391007,0.202565,-0.450546,0.0674926
[0:00:13.200000],21.6858,-4.6904,46.7091,0.898026,0.188474,0.037593,0.396052,0.21016,-0.427368,0.0753973
[0:00:13.300000],21.4739,-4.93451,47.3646,0.895853,0.187424,0.0360071,0.40158,0.184979,-0.431622,0.0802333
[0:00:13.400000],21.1765,-5.16698,48.1152,0.893455,0.185663,0.0343507,0.407838,0.187956,-0.451761,0.0764277
[0:00:13.500000],20.9404,-5.35917,48.7906,0.891222,0.184288,0.033087,0.413414,0.19603,-0.43598,0.0674282
[0:00:13.600000],20.7226,-5.67096,49.4405,0.888891,0.183504,0.0308981,0.418915,0.183106,-0.425666,0.0702332
[0:00:13.700000],20.405,-5.91946,50.0521,0.886887,0.181763,0.0287633,0.424041,0.171345,-0.444762,0.0732235
[0:00:13.800000],20.2947,-6.1197,50.7685,0.88418,0.181451,0.027927,0.429844,0.170555,-0.420989,0.0673472
[0:00:13.900000],20.105,-6.27257,51.4011,0.881928,0.180391,0.0270212,0.434944,0.158198,-0.424392,0.0734394
[0:00:14],19.9004,-6.36037,52.0684,0.879606,0.178985,0.0266052,0.440221,0.150571,-0.417886,0.0726889
[0:00:14.100000],19.7922,-6.5651,52.7392,0.876958,0.178763,0.02565,0.445618,0.144213,-0.425873,0.0638247
[0:00:14.200000],19.517,-6.70115,53.3961,0.874665,0.177027,0.0245435,0.450849,0.14692,-0.437645,0.070596
[0:00:14.300000],19.2867,-6.85416,54.097,0.872074,0.175707,0.0235324,0.456403,0.149334,-0.418089,0.0649288
[0:00:14.400000],19.1083,-6.94035,54.7646,0.869576,0.174547,0.0231764,0.461603,0.13838,-0.435313,0.0649375
[0:00:14.500000],18.8489,-7.05229,55.4706,0.866982,0.172878,0.0223385,0.467119,0.132352,-0.437333,0.0669364
[0:00:14.600000],18.7162,-7.24852,56.2004,0.863966,0.172511,0.021396,0.472852,0.108202,-0.429771,0.0508528
[0:00:14.700000],18.5205,-7.4366,56.9876,0.860774,0.171646,0.0203344,0.478996,0.130215,-0.43424,0.0587138
[0:00:14.800000],18.4602,-7.57594,57.6016,0.858123,0.171648,0.0199433,0.483744,0.108883,-0.417279,0.0503227
[0:00:14.900000],18.3524,-7.60946,58.314,0.855221,0.170855,0.0202969,0.48912,0.112697,-0.418415,0.0508446
[0:00:15],18.2428,-7.60138,58.9746,0.85256,0.169886,0.0208699,0.494054,0.0950146,-0.41357,0.0596316
[0:00:15.100000],18.0463,-7.74914,59.763,0.849257,0.168904,0.0200725,0.500076,0.0977079,-0.416092,0.0611584
[0:00:15.200000],17.9656,-7.87636,60.3737,0.846546,0.168738,0.0196655,0.504722,0.103259,-0.411009,0.0623577
[0:00:15.300000],17.7959,-7.82569,61.1237,0.843535,0.16714,0.0203916,0.510237,0.0793553,-0.423147,0.0616469
[0:00:15.400000],17.7119,-7.84111,61.7871,0.840671,0.16647,0.0208667,0.51514,0.082995,-0.414428,0.0538537
[0:00:15.500000],17.5573,-7.82071,62.5814,0.837328,0.165102,0.0214679,0.520966,0.0743755,-0.415129,0.0632514
[0:00:15.600000],17.4606,-7.87039,63.3835,0.833741,0.164465,0.0218125,0.526873,0.0770566,-0.416063,0.0505323
[0:00:15.700000],17.2699,-7.85958,64.0421,0.830985,0.162906,0.021952,0.531684,0.091953,-0.438375,0.0598394
[0:00:15.800000],17.2394,-7.8322,64.7297,0.827856,0.162427,0.0229868,0.536645,0.0662424,-0.420497,0.047841
[0:00:15.900000],17.0826,-7.941,65.4192,0.824703,0.161656,0.0224291,0.541732,0.077484,-0.409345,0.0524778
[0:00:16],16.9331,-8.08559,66.1563,0.821238,0.161105,0.0217045,0.547163,0.0792575,-0.421297,0.0552927
[0:00:16.100000],16.8943,-8.1167,66.7936,0.818199,0.16085,0.0221882,0.551751,0.054489,-0.420451,0.0486411
[0:00:16.200000],16.7507,-8.09628,67.5194,0.814914,0.159589,0.0226557,0.556936,0.0699174,-0.428222,0.0511706
[0:00:16.300000],16.6012,-8.22386,68.2893,0.811206,0.158983,0.0220784,0.562517,0.0641733,-0.414245,0.0426145
[0:00:16.400000],16.498,-8.26663,68.945,0.808065,0.158332,0.0221711,0.567199,0.0409124,-0.421966,0.0549055
[0:00:16.500000],16.4934,-8.33658,69.5822,0.80482,0.158512,0.0225292,0.57173,0.0499583,-0.418542,0.0416851
[0:00:16.600000],16.4036,-8.3471,70.4014,0.800823,0.157771,0.0231348,0.577494,0.0404994,-0.434015,0.0535994
[0:00:16.700000],16.175,-8.4211,71.0708,0.797658,0.156408,0.0223723,0.582255,0.0441654,-0.432616,0.051454
[0:00:16.800000],16.066,-8.33612,71.7197,0.794601,0.1551,0.0232974,0.586732,0.0201201,-0.409566,0.040897
[0:00:16.900000],15.8943,-8.29188,72.4507,0.791127,0.153541,0.0237097,0.591798,0.0167337,-0.414009,0.0386918
[0:00:17],15.8332,-8.22564,73.2269,0.787263,0.152621,0.0248924,0.597117,0.0346625,-0.426161,0.0515484
[0:00:17.100000],15.7476,-8.28756,74.0502,0.782991,0.152171,0.0251089,0.602812,0.0354851,-0.436172,0.0392106
[0:00:17.200000],15.6145,-8.28059,74.7861,0.779289,0.151066,0.0254274,0.607853,0.00325686,-0.406313,0.0405873
[0:00:17.300000],15.4182,-8.30373,75.573,0.775326,0.149681,0.0252552,0.613247,0.0133553,-0.42299,0.0376001
[0:00:17.400000],15.351,-8.3077,76.3247,0.771369,0.14908,0.0258467,0.618337,0.0248224,-0.422784,0.0533541
[0:00:17.500000],15.3532,-8.28657,77.1046,0.767166,0.148804,0.0270163,0.623561,0.00425215,-0.420088,0.0535566
[0:00:17.600000],15.1986,-8.31131,77.848,0.763275,0.147728,0.0269658,0.628573,0.00748707,-0.430923,0.0496789
[0:00:17.700000],15.0514,-8.31906,78.6346,0.759122,0.146607,0.0271135,0.633837,-0.00668488,-0.40985,0.047631
[0:00:17.800000],14.9463,-8.20191,79.4021,0.755135,0.145092,0.0282927,0.638877,-0.00154874,-0.417693,0.0478539
[0:00:17.900000],14.8268,-8.09806,80.1923,0.750986,0.143539,0.0293116,0.644051,-0.0129381,-0.431205,0.0442068
[0:00:18],14.8472,-8.0479,80.9942,0.746495,0.143186,0.0307629,0.649262,-0.0103623,-0.415098,0.0352059
[0:00:18.100000],14.8154,-8.00733,81.7112,0.742506,0.142558,0.0317439,0.65391,0.00138623,-0.41447,0.0389985
[0:00:18.200000],14.7232,-8.00493,82.3442,0.739,0.141773,0.0320176,0.658027,-0.0121832,-0.428434,0.0330331
[0:00:18.300000],14.5955,-7.83415,82.9994,0.735584,0.139801,0.0332028,0.662203,-0.0291893,-0.412975,0.0434294
[0:00:18.400000],14.4876,-7.74073,83.6528,0.732037,0.138387,0.0339778,0.666379,-0.034654,-0.4122,0.0368881
[0:00:18.500000],14.4434,-7.71443,84.4485,0.727476,0.137716,0.0348484,0.671448,-0.0359691,-0.42179,0.0368196
[0:00:18.600000],14.2657,-7.76024,85.2471,0.722938,0.136615,0.034465,0.676575,-0.0242492,-0.422814,0.0406181
[0:00:18.700000],14.2247,-7.70459,85.894,0.719221,0.135836,0.0353468,0.680636,-0.0191364,-0.419168,0.046482
[0:00:18.800000],14.0729,-7.69791,86.6318,0.71501,0.13462,0.0353554,0.685297,-0.0399559,-0.428894,0.0441161
[0:00:18.900000],13.9936,-7.55669,87.2969,0.711276,0.133086,0.0365494,0.689408,-0.0530158,-0.424592,0.030222
[0:00:19],13.9434,-7.42605,87.9534,0.707521,0.131787,0.0378264,0.69344,-0.0283553,-0.405937,0.0300291
[0:00:19.100000],13.8583,-7.25437,88.7507,0.702972,0.129969,0.0392928,0.698312,-0.0537038,-0.425595,0.039862
[0:00:19.200000],13.764,-7.10467,89.5056,0.69863,0.128229,0.040496,0.702907,-0.0494025,-0.411575,0.0326859
[0:00:19.300000],13.6524,-6.90821,90.1427,0.695053,0.126131,0.0417289,0.70675,-0.0571687,-0.411993,0.029625
[0:00:19.400000],13.6282,-6.83961,90.7777,0.691227,0.125333,0.0426971,0.710575,-0.0488999,-0.419737,0.0373825
[0:00:19.500000],13.6846,-6.67852,91.4306,0.687284,0.124435,0.0447415,0.714422,-0.0463521,-0.407397,0.0324697
[0:00:19.600000],13.6045,-6.59298,92.1111,0.683208,0.123161,0.045495,0.718493,-0.0588463,-0.407371,0.0335007
[0:00:19.700000],13.6128,-6.43115,92.8171,0.678936,0.121921,0.0472778,0.722628,-0.0691625,-0.421137,0.0317582
[0:00:19.800000],13.5585,-6.29433,93.532,0.67462,0.120447,0.0485096,0.726823,-0.0462205,-0.427913,0.0267021
[0:00:19.900000],13.4914,-6.14455,94.1763,0.670752,0.118836,0.0496465,0.730581,-0.0593687,-0.416287,0.0369577
[0:00:20],13.4407,-6.11591,94.945,0.66592,0.118024,0.0502866,0.735076,-0.0716891,-0.412332,0.0241274
[0:00:20.100000],13.4795,-6.11126,95.6724,0.661205,0.117896,0.0513117,0.73927,-0.0527486,-0.404625,0.0369098
[0:00:20.200000],13.38,-6.07962,96.2974,0.657298,0.116842,0.0514934,0.742899,-0.0643455,-0.425849,0.0409694
[0:00:20.300000],13.2557,-5.90368,96.9973,0.653059,0.114683,0.0524123,0.746899,-0.0836303,-0.422846,0.0404044
[0:00:20.400000],13.2709,-5.86864,97.725,0.648325,0.114207,0.0534402,0.751012,-0.062209,-0.398277,0.0394275
[0:00:20.500000],13.3777,-5.74297,98.4842,0.643362,0.11363,0.0556141,0.755199,-0.0938403,-0.403244,0.0383564
[0:00:20.600000],13.385,-5.65472,99.1379,0.639128,0.112773,0.0568086,0.758825,-0.0931012,-0.422628,0.0320122
[0:00:20.700000],13.4323,-5.57829,99.867,0.634321,0.112167,0.0582691,0.762827,-0.0890271,-0.42883,0.030977
[0:00:20.800000],13.3916,-5.42264,100.566,0.629859,0.110555,0.0595466,0.766651,-0.0929148,-0.405253,0.0265922
[0:00:20.900000],13.3886,-5.38813,101.229,0.625452,0.109962,0.0603557,0.770272,-0.0824886,-0.406497,0.0223748
[0:00:21],13.4276,-5.24473,101.891,0.621102,0.108863,0.0620411,0.773806,-0.101542,-0.412947,0.0375654
[0:00:21.100000],13.4665,-5.18498,102.482,0.617126,0.10835,0.0631922,0.776959,-0.103372,-0.423577,0.0398284
[0:00:21.200000],13.4941,-5.07278,103.114,0.612922,0.107389,0.0645846,0.780299,-0.0932429,-0.414013,0.0228627
[0:00:21.300000],13.5344,-4.97716,103.854,0.607934,0.106535,0.0660663,0.784185,-0.114774,-0.401301,0.0372884
[0:00:21.400000],13.4433,-4.84089,104.514,0.603632,0.104744,0.0667795,0.787681,-0.104042,-0.424893,0.0213402
[0:00:21.500000],13.4276,-4.64915,105.213,0.599029,0.102939,0.068323,0.791292,-0.108276,-0.428414,0.0266834
[0:00:21.600000],13.5177,-4.57009,105.802,0.594955,0.10251,0.0698915,0.794279,-0.0987825,-0.410983,0.0373175
[0:00:21.700000],13.5936,-4.54592,106.372,0.590952,0.102385,0.0710551,0.797175,-0.0989725,-0.419294,0.0231292
[0:00:21.800000],13.5605,-4.35667,107.041,0.586509,0.100486,0.0724009,0.80057,-0.118751,-0.417634,0.0249417
[0:00:21.900000],13.5056,-4.17974,107.72,0.581982,0.0985435,0.0735189,0.804005,-0.115488,-0.426158,0.0232129
[0:00:22],13.5495,-4.08308,108.377,0.577425,0.097665,0.0748845,0.807266,-0.129369,-0.412342,0.038654
[0:00:22.100000],13.5689,-3.84992,108.979,0.573393,0.0957284,0.0767136,0.810195,-0.128239,-0.399247,0.0350416
[0:00:22.200000],13.6696,-3.80024,109.68,0.568398,0.0954068,0.0782614,0.813597,-0.128595,-0.402675,0.0363745
[0:00:22.300000],13.7301,-3.76489,110.419,0.563122,0.0949462,0.0794823,0.817194,-0.113941,-0.415426,0.0297489
[0:00:22.400000],13.6583,-3.68448,110.979,0.559262,0.0936344,0.0798288,0.819957,-0.136955,-0.428821,0.036018
[0:00:22.500000],13.6471,-3.57891,111.604,0.554899,0.0923896,0.0807746,0.822964,-0.138778,-0.424021,0.022309
[0:00:22.600000],13.7177,-3.53052,112.312,0.549796,0.0918802,0.0820876,0.82631,-0.140255,-0.420772,0.0248675
[0:00:22.700000],13.6654,-3.4459,113.048,0.5446,0.0904923,0.0827041,0.829835,-0.132555,-0.404588,0.0277384
[0:00:22.800000],13.6896,-3.31557,113.71,0.539913,0.0891846,0.0840214,0.832901,-0.143468,-0.399719,0.0246559
[0:00:22.900000],13.7179,-3.19482,114.444,0.534665,0.0878992,0.0853669,0.83628,-0.145392,-0.419575,0.0297222
[0:00:23],13.7458,-3.11397,115.079,0.530084,0.0869644,0.0864345,0.839179,-0.143128,-0.414511,0.0264057
[0:00:23.100000],13.7116,-2.95351,115.647,0.526099,0.085204,0.0873583,0.841768,-0.163708,-0.413968,0.038328
[0:00:23.200000],13.6878,-2.84248,116.235,0.521901,0.0838314,0.0881295,0.844434,-0.140228,-0.41188,0.0248899
[0:00:23.300000],13.6628,-2.6887,116.909,0.517098,0.0820657,0.0891358,0.847452,-0.165379,-0.418138,0.0293598
[0:00:23.400000],13.5912,-2.48014,117.552,0.512588,0.0797016,0.0900047,0.85032,-0.15924,-0.416109,0.033667
[0:00:23.500000],13.7619,-2.3466,118.172,0.507997,0.0789797,0.0923017,0.852893,-0.147939,-0.393513,0.0229232
[0:00:23.600000],13.8124,-2.17671,118.726,0.503996,0.07749,0.0938129,0.855235,-0.142901,-0.403185,0.0332129
[0:00:23.700000],13.7632,-2.10796,119.318,0.499675,0.0762772,0.0941457,0.857839,-0.169595,-0.415974,0.0206966
[0:00:23.800000],13.6865,-2.09114,119.996,0.49466,0.075262,0.094092,0.860836,-0.152883,-0.413334,0.0258613
[0:00:23.900000],13.6857,-1.92436,120.536,0.49076,0.0735609,0.0951586,0.863095,-0.152721,-0.391798,0.0225857
[0:00:24],13.753,-1.79065,121.086,0.486694,0.0723817,0.0965914,0.865334,-0.161192,-0.410231,0.0237677
[0:00:24.100000],13.8089,-1.65547,121.803,0.481365,0.0709883,0.0980374,0.868263,-0.159749,-0.388795,0.0374191
[0:00:24.200000],13.8168,-1.62962,122.454,0.476452,0.0702674,0.098606,0.870963,-0.164486,-0.412734,0.03512
[0:00:24.300000],13.7972,-1.55117,122.953,0.472738,0.0691596,0.0990882,0.873018,-0.180573,-0.408872,0.0333542
[0:00:24.400000],13.8193,-1.46319,123.529,0.46842,0.0680808,0.0999651,0.875328,-0.190269,-0.411942,0.0288903
[0:00:24.500000],13.8617,-1.31378,124.239,0.463109,0.0664883,0.101316,0.878116,-0.174234,-0.396866,0.0224133
[0:00:24.600000],13.8515,-1.20868,124.92,0.457989,0.0650374,0.102054,0.880821,-0.176856,-0.389013,0.0220264
[0:00:24.700000],14.0046,-1.03312,125.55,0.453225,0.0637295,0.104287,0.883116,-0.192713,-0.384785,0.0385418
[0:00:24.800000],14.1274,-0.927436,126.088,0.44911,0.0629051,0.105949,0.885077,-0.17915,-0.403473,0.0375063
[0:00:24.900000],14.1098,-0.757168,126.622,0.445151,0.0610248,0.106769,0.887108,-0.183442,-0.397387,0.0385483
[0:00:25],14.1058,-0.696583,127.257,0.440297,0.059948,0.107308,0.889536,-0.177868,-0.409103,0.0248464
[0:00:25.100000],14.1205,-0.541594,127.756,0.43656,0.0583309,0.108274,0.891366,-0.194267,-0.400203,0.0280551
[0:00:25.200000],14.1868,-0.380729,128.36,0.431977,0.0567552,0.109704,0.893523,-0.19622,-0.401574,0.0360664
[0:00:25.300000],14.1645,-0.290737,128.866,0.428126,0.0554844,0.110117,0.895404,-0.188241,-0.39766,0.0253433
[0:00:25.400000],14.1771,-0.190306,129.533,0.422998,0.054102,0.110907,0.897825,-0.195216,-0.401231,0.0364977
[0:00:25.500000],14.2046,-0.109345,130.024,0.419217,0.0530918,0.111649,0.899565,-0.184953,-0.390222,0.0328889
[0:00:25.600000],14.1946,0.00125249,130.519,0.415443,0.0517036,0.1122,0.901326,-0.205545,-0.389627,0.0335768
[0:00:25.700000],14.3535,0.175198,131.04,0.41144,0.0503924,0.11431,0.90297,-0.202142,-0.375651,0.0216915
[0:00:25.800000],14.5531,0.207184,131.579,0.407125,0.0503099,0.116236,0.904683,-0.193405,-0.37286,0.0301923
[0:00:25.900000],14.7219,0.231182,132.137,0.402669,0.0501469,0.117898,0.906469,-0.216729,-0.379006,0.030816
[0:00:26],14.6636,0.328849,132.722,0.398157,0.0485669,0.118029,0.908529,-0.218748,-0.400236,0.0316643
[0:00:26.100000],14.7516,0.337064,133.303,0.393517,0.0482049,0.119002,0.910441,-0.21067,-0.371937,0.0388304
[0:00:26.200000],14.8224,0.479866,133.846,0.389315,0.046744,0.120276,0.912155,-0.212023,-0.385395,0.0337307
[0:00:26.300000],14.9403,0.503096,134.397,0.384899,0.0463753,0.121517,0.913881,-0.215096,-0.389518,0.0313937
[0:00:26.400000],15.0565,0.546862,134.975,0.380283,0.0457976,0.122823,0.915667,-0.217689,-0.380734,0.0289955
[0:00:26.500000],15.1387,0.594798,135.583,0.37544,0.0450307,0.123878,0.917559,-0.213252,-0.382543,0.0402408
[0:00:26.600000],15.085,0.754336,136.084,0.371607,0.0430339,0.124159,0.919176,-0.228168,-0.392861,0.0262958
[0:00:26.700000],15.0974,0.852576,136.73,0.366519,0.0415831,0.124812,0.921195,-0.203992,-0.391111,0.0252764
[0:00:26.800000],15.1092,1.0413,137.237,0.36263,0.0395467,0.125683,0.922704,-0.227188,-0.380248,0.0360641
[0:00:26.900000],15.2066,1.1248,137.852,0.357726,0.0385013,0.126938,0.924489,-0.217125,-0.374008,0.0259144
[0:00:27],15.3285,1.10607,138.333,0.35378,0.0384958,0.128027,0.925857,-0.206283,-0.372827,0.0303754
[0:00:27.100000],15.3771,1.13481,138.936,0.348922,0.0377372,0.128707,0.927635,-0.213227,-0.368759,0.0346979
[0:00:27.200000],15.4804,1.20692,139.569,0.343832,0.0367494,0.129966,0.929399,-0.21319,-0.373418,0.0445399
[0:00:27.300000],15.4961,1.1406,140.059,0.339775,0.0367786,0.130055,0.930876,-0.215079,-0.363558,0.0322012
[0:00:27.400000],15.5269,1.21372,140.508,0.3362,0.0357647,0.130661,0.932128,-0.22186,-0.3706,0.0385958
[0:00:27.500000],15.6984,1.23113,141.121,0.331174,0.0354187,0.132297,0.933708,-0.227477,-0.358526,0.0433125
[0:00:27.600000],15.7111,1.24514,141.581,0.327428,0.0348082,0.132582,0.93501,-0.221312,-0.372532,0.0367867
[0:00:27.700000],15.6797,1.3341,142.174,0.322695,0.0333059,0.132752,0.936685,-0.239535,-0.372667,0.0308735
[0:00:27.800000],15.804,1.43638,142.678,0.318648,0.032229,0.134195,0.937902,-0.22121,-0.361192,0.0446867
[0:00:27.900000],15.9238,1.4014,143.227,0.31408,0.0322014,0.135236,0.939293,-0.24953,-0.369922,0.0350507
[0:00:28],15.9415,1.43819,143.825,0.309204,0.0312398,0.135646,0.940883,-0.228442,-0.359717,0.0470526
[0:00:28.100000],16.0651,1.39342,144.358,0.30474,0.0313054,0.136688,0.942186,-0.2338,-0.352944,0.0413421
[0:00:28.200000],16.1965,1.45536,144.925,0.300108,0.030462,0.138083,0.943496,-0.241265,-0.362463,0.0344359
[0:00:28.300000],16.2682,1.55758,145.429,0.296057,0.0291963,0.139067,0.94467,-0.239542,-0.351566,0.0437416
[0:00:28.400000],16.2723,1.60169,145.936,0.291919,0.0282261,0.13934,0.945947,-0.241702,-0.374944,0.0444536
[0:00:28.500000],16.27,1.69106,146.465,0.287649,0.0268371,0.139671,0.947245,-0.243195,-0.365556,0.0339876
[0:00:28.600000],16.4405,1.72234,147.082,0.282541,0.0262455,0.141301,0.948557,-0.234776,-0.34985,0.0456432
[0:00:28.700000],16.3989,1.68819,147.653,0.277783,0.0257239,0.141003,0.950019,-0.247945,-0.362403,0.0364494
[0:00:28.800000],16.4844,1.59737,148.195,0.273162,0.0260153,0.14162,0.951259,-0.251116,-0.3528,0.0389031
[0:00:28.900000],16.6085,1.65386,148.698,0.269019,0.0252141,0.142894,0.95227,-0.267525,-0.33973,0.0418048
[0:00:29],16.5489,1.62365,149.244,0.264461,0.024648,0.142449,0.953627,-0.257799,-0.362299,0.0399067
[0:00:29.100000],16.5673,1.73573,149.77,0.260209,0.0231007,0.142964,0.954758,-0.265853,-0.353556,0.048049
[0:00:29.200000],16.611,1.74442,150.192,0.256685,0.0225983,0.143431,0.955653,-0.269547,-0.33628,0.0463789
[0:00:29.300000],16.6376,1.70919,150.753,0.251959,0.0222491,0.143686,0.95688,-0.255513,-0.340514,0.0501555
[0:00:29.400000],16.6608,1.73341,151.172,0.24848,0.0215708,0.144012,0.957756,-0.269494,-0.343645,0.0439367
[0:00:29.500000],16.822,1.73199,151.71,0.24395,0.0212496,0.145457,0.958709,-0.270557,-0.338831,0.0412053
[0:00:29.600000],16.8515,1.735,152.237,0.239534,0.0206164,0.145807,0.959782,-0.274533,-0.326383,0.0350696
[0:00:29.700000],16.8868,1.71476,152.672,0.235863,0.020306,0.146139,0.960647,-0.264937,-0.341198,0.0514736
[0:00:29.800000],16.9036,1.75724,153.201,0.231473,0.0193081,0.146456,0.961687,-0.263647,-0.341959,0.0476128
[0:00:29.900000],17.0073,1.78626,153.752,0.226863,0.0185646,0.147475,0.962644,-0.280658,-0.318904,0.0454695
[0:00:30],16.9546,1.79409,154.259,0.222615,0.0177428,0.147127,0.963704,-0.251956,-0.335846,0.0505761
[0:00:30.100000],16.9106,1.73475,154.81,0.217912,0.0174514,0.14673,0.964844,-0.283997,-0.333595,0.040678
[0:00:30.200000],16.9396,1.79025,155.319,0.213684,0.0163848,0.147152,0.965744,-0.274912,-0.324183,0.0351777
[0:00:30.300000],16.9851,1.69,155.774,0.209724,0.0167311,0.14742,0.966564,-0.265247,-0.335213,0.0518385
[0:00:30.400000],16.9155,1.64021,156.175,0.206285,0.0165097,0.146802,0.967402,-0.284548,-0.333814,0.0405356
[0:00:30.500000],17.0413,1.5903,156.734,0.20148,0.016436,0.147858,0.968255,-0.264972,-0.317915,0.0393212
[0:00:30.600000],17.0755,1.53006,157.199,0.197472,0.0164048,0.148111,0.969042,-0.285371,-0.302929,0.0403844
[0:00:30.700000],17.1839,1.47723,157.749,0.192738,0.0163236,0.149018,0.969857,-0.287758,-0.302119,0.0462888
[0:00:30.800000],17.1982,1.39999,158.257,0.188336,0.0163408,0.149086,0.970711,-0.279828,-0.307068,0.0415092
[0:00:30.900000],17.2313,1.33032,158.767,0.183922,0.0163213,0.149328,0.97152,-0.267677,-0.307994,0.0498917
[0:00:31],17.3121,1.25119,159.217,0.179985,0.016532,0.149954,0.972157,-0.288894,-0.29873,0.0392947
[0:00:31.100000],17.4199,1.22152,159.761,0.175315,0.0162369,0.150901,0.972869,-0.287337,-0.305471,0.04253
[0:00:31.200000],17.4356,1.19055,160.208,0.171482,0.0159356,0.151052,0.973533,-0.290746,-0.303174,0.0523069
[0:00:31.300000],17.4568,1.19351,160.765,0.16674,0.0152055,0.151312,0.974328,-0.289352,-0.304442,0.0433241
[0:00:31.400000],17.5798,1.16203,161.179,0.163165,0.0151022,0.152368,0.97477,-0.291427,-0.303258,0.0518333
[0:00:31.500000],17.5738,1.11276,161.571,0.159763,0.0149914,0.1523,0.975346,-0.294606,-0.284973,0.0502593
[0:00:31.600000],17.6423,1.02124,162.133,0.154852,0.0151171,0.152834,0.976052,-0.272094,-0.303518,0.0425355
[0:00:31.700000],17.7578,0.99013,162.617,0.150667,0.0148876,0.15384,0.976552,-0.27398,-0.292623,0.0471066
[0:00:31.800000],17.6778,0.901809,163.061,0.146777,0.0149424,0.153104,0.97726,-0.300912,-0.305095,0.0477562
[0:00:31.900000],17.6987,0.884773,163.602,0.142139,0.0143912,0.15333,0.977918,-0.30011,-0.289392,0.0510975
[0:00:32],17.7206,0.899285,164.075,0.138113,0.0136598,0.153592,0.978464,-0.281363,-0.298909,0.0448695
[0:00:32.100000],17.6775,0.764252,164.446,0.134774,0.0142658,0.153111,0.978996,-0.275724,-0.292893,0.054924
[0:00:32.200000],17.6552,0.781897,164.893,0.130973,0.0134911,0.152995,0.979541,-0.29391,-0.2783,0.0439445
[0:00:32.300000],17.5995,0.753612,165.302,0.127444,0.0131247,0.152535,0.980083,-0.276642,-0.281831,0.0435226
[0:00:32.400000],17.6609,0.568812,165.787,0.123049,0.0141272,0.152918,0.980571,-0.284323,-0.274684,0.0415528
[0:00:32.500000],17.7346,0.410914,166.289,0.118532,0.0148849,0.153448,0.981033,-0.281097,-0.289956,0.0407619
[0:00:32.600000],17.6776,0.302522,166.709,0.114795,0.0151929,0.152905,0.981557,-0.292083,-0.277292,0.0415465
[0:00:32.700000],17.7119,0.282452,167.135,0.111115,0.0148298,0.153236,0.981935,-0.305495,-0.282075,0.0417885
[0:00:32.800000],17.7211,0.213889,167.6,0.107039,0.0148045,0.15331,0.982376,-0.305471,-0.276614,0.0521467
[0:00:32.900000],17.6685,0.122658,167.998,0.103507,0.0150059,0.152827,0.982827,-0.309627,-0.261581,0.0546712
[0:00:33],17.6739,-0.0153976,168.399,0.0998837,0.0156602,0.152805,0.983195,-0.295496,-0.258436,0.0418799
[0:00:33.100000],17.7426,-0.184135,168.909,0.0952666,0.0164843,0.153322,0.983559,-0.294718,-0.266535,0.0501229
[0:00:33.200000],17.8116,-0.281213,169.445,0.0905266,0.0166551,0.153912,0.983912,-0.291346,-0.261087,0.0477502
[0:00:33.300000],17.7695,-0.318381,169.947,0.0861669,0.0162676,0.153594,0.984359,-0.291873,-0.252636,0.0467967
[0:00:33.400000],17.7869,-0.463817,170.35,0.0825107,0.0169898,0.153694,0.984645,-0.286904,-0.254141,0.0403147
[0:00:33.500000],17.8323,-0.63797,170.856,0.0779167,0.0178377,0.154037,0.98495,-0.298732,-0.237308,0.0384478
[0:00:33.600000],17.879,-0.690286,171.411,0.0730673,0.0175709,0.154488,0.985256,-0.306115,-0.244733,0.0510981
[0:00:33.700000],17.9424,-0.684117,171.865,0.0691618,0.0169438,0.155106,0.985452,-0.307777,-0.239988,0.0419769
[0:00:33.800000],17.967,-0.706051,172.305,0.0653426,0.0165505,0.155369,0.985678,-0.307061,-0.253396,0.0473018
[0:00:33.900000],17.9836,-0.771241,172.722,0.0616656,0.0165548,0.155534,0.985889,-0.282808,-0.253849,0.0564989
[0:00:34],18.0174,-0.838387,173.142,0.0579478,0.0165782,0.155849,0.986064,-0.298262,-0.23524,0.0484573
[0:00:34.100000],17.9947,-0.908974,173.6,0.0539152,0.0165521,0.155684,0.986319,-0.301142,-0.231623,0.0554327
[0:00:34.200000],18.0034,-0.981962,174.125,0.0492929,0.0164703,0.1558,0.986544,-0.303515,-0.248057,0.047443
[0:00:34.300000],17.9779,-1.11171,174.573,0.0452595,0.0169674,0.155589,0.986762,-0.298516,-0.227724,0.0499083
[0:00:34.400000],17.9239,-1.21491,175.116,0.0404508,0.0170995,0.155164,0.987036,-0.294396,-0.235179,0.0393989
[0:00:34.500000],17.8409,-1.37154,175.5,0.0369435,0.0179016,0.15445,0.987271,-0.302256,-0.238847,0.0517088
[0:00:34.600000],17.8288,-1.48602,176.049,0.0320589,0.018144,0.154394,0.987446,-0.297662,-0.218366,0.0485779
[0:00:34.700000],17.8904,-1.54262,176.467,0.0283684,0.0180832,0.154974,0.987469,-0.291874,-0.213523,0.0455762
[0:00:34.800000],17.9601,-1.75839,176.957,0.0238366,0.0192931,0.155597,0.987468,-0.286727,-0.21251,0.0550254
[0:00:34.900000],17.9076,-1.83043,177.376,0.0201408,0.0193361,0.155198,0.987612,-0.30367,-0.221697,0.047213
[0:00:35],17.8325,-1.94836,177.899,0.0154813,0.019633,0.154616,0.987782,-0.29291,-0.208955,0.0499265
[0:00:35.100000],17.8016,-2.14363,178.278,0.0119542,0.0208008,0.154384,0.987843,-0.303091,-0.217622,0.0515261
[0:00:35.200000],17.7225,-2.3648,178.656,0.0084146,0.0221921,0.153742,0.987949,-0.287417,-0.214003,0.0398972
[0:00:35.300000],17.6708,-2.641,179.117,0.00407587,0.0239515,0.153357,0.987995,-0.286556,-0.215643,0.0398843
[0:00:35.400000],17.732,-2.84327,179.637,-0.000694336,0.0249981,0.15398,0.987881,-0.294111,-0.199946,0.0524547
[0:00:35.500000],17.7495,-2.96214,-179.797,-0.00573588,0.0252611,0.154251,0.987816,-0.30369,-0.205026,0.055272
[0:00:35.600000],17.6458,-3.04794,-179.224,-0.0107695,0.0252384,0.153483,0.987894,-0.311045,-0.194919,0.0417355
[0:00:35.700000],17.5732,-3.22667,-178.798,-0.0146627,0.0262175,0.15296,0.987899,-0.286572,-0.182491,0.0456057
[0:00:35.800000],17.5922,-3.34575,-178.356,-0.0186382,0.0266504,0.153234,0.987778,-0.300549,-0.200288,0.039655
[0:00:35.900000],17.4409,-3.54684,-177.923,-0.0226054,0.0278334,0.152053,0.987845,-0.313696,-0.197283,0.0406489
[0:00:36],17.2988,-3.65481,-177.389,-0.0273123,0.0280895,0.150973,0.987885,-0.300684,-0.190308,0.0433192
[0:00:36.100000],17.2634,-3.91094,-176.852,-0.032271,0.0295987,0.150847,0.98771,-0.295318,-0.190791,0.0554409
[0:00:36.200000],17.2721,-4.14328,-176.368,-0.0367407,0.0309618,0.151099,0.987474,-0.314499,-0.182245,0.044467
[0:00:36.300000],17.2627,-4.28539,-175.854,-0.0413527,0.0315115,0.151192,0.98726,-0.315508,-0.16995,0.0383667
[0:00:36.400000],17.2236,-4.46319,-175.383,-0.0456343,0.0324364,0.151037,0.987065,-0.314696,-0.158365,0.0387576
[0:00:36.500000],17.2736,-4.73864,-174.89,-0.0502527,0.0341367,0.151698,0.986682,-0.303497,-0.162928,0.0415807
[0:00:36.600000],17.2916,-4.87164,-174.418,-0.0544894,0.034649,0.15204,0.986386,-0.30581,-0.165428,0.0402727
[0:00:36.700000],17.1791,-5.1149,-173.883,-0.0593737,0.036091,0.151331,0.986162,-0.315166,-0.152891,0.0535347
[0:00:36.800000],17.1757,-5.31739,-173.479,-0.0631075,0.0373023,0.151515,0.985856,-0.311728,-0.153105,0.0444248
[0:00:36.900000],17.0623,-5.50062,-172.928,-0.0680442,0.0382172,0.150804,0.985602,-0.316865,-0.158458,0.0497481
[0:00:37],16.9154,-5.81595,-172.477,-0.0722717,0.0404287,0.149848,0.985359,-0.292556,-0.154089,0.0493994
[0:00:37.100000],16.7969,-5.97335,-171.947,-0.0769886,0.041168,0.149101,0.985084,-0.291017,-0.13562,0.051148
[0:00:37.200000],16.7514,-6.26485,-171.391,-0.0821056,0.0429844,0.149076,0.984597,-0.29223,-0.150882,0.0513781
[0:00:37.300000],16.6434,-6.44899,-170.847,-0.0869694,0.0439403,0.148465,0.984229,-0.29872,-0.142698,0.0558197
[0:00:37.400000],16.5689,-6.62456,-170.374,-0.0912133,0.0448958,0.148121,0.983854,-0.294928,-0.133793,0.051513
[0:00:37.500000],16.5305,-6.88426,-169.802,-0.0964176,0.04642,0.148193,0.983276,-0.31182,-0.138129,0.0426167
[0:00:37.600000],16.4461,-7.1359,-169.247,-0.101447,0.0479371,0.147876,0.982745,-0.299882,-0.133829,0.0548617
[0:00:37.700000],16.3147,-7.31625,-168.771,-0.105686,0.048992,0.147086,0.982364,-0.311672,-0.128483,0.0422719
[0:00:37.800000],16.2594,-7.48258,-168.185,-0.110882,0.0497197,0.146995,0.981768,-0.29502,-0.12874,0.0461456
[0:00:37.900000],16.1746,-7.74823,-167.699,-0.11532,0.0514592,0.146703,0.981211,-0.307001,-0.128198,0.042054
[0:00:38],16.0903,-7.90422,-167.278,-0.119068,0.0523446,0.146306,0.980776,-0.301702,-0.122666,0.0495739
[0:00:38.100000],16.0726,-8.15094,-166.766,-0.123717,0.0538248,0.146611,0.980074,-0.319882,-0.118483,0.0535454
[0:00:38.200000],15.9439,-8.33047,-166.311,-0.127754,0.054923,0.145893,0.979603,-0.294052,-0.101635,0.0481153
[0:00:38.300000],15.9339,-8.58713,-165.809,-0.132329,0.0564923,0.146297,0.978846,-0.294516,-0.105927,0.0497385
[0:00:38.400000],15.8153,-8.75802,-165.367,-0.136232,0.0575313,0.145674,0.978342,-0.299662,-0.105728,0.0535182
[0:00:38.500000],15.8159,-8.9505,-164.816,-0.141144,0.0584762,0.146155,0.977518,-0.312258,-0.0942442,0.0481584
[0:00:38.600000],15.7357,-9.22999,-164.276,-0.146021,0.0602766,0.14605,0.976708,-0.299863,-0.115226,0.0485852
[0:00:38.700000],15.7199,-9.39211,-163.839,-0.149904,0.061126,0.146324,0.976025,-0.301435,-0.0902429,0.0553613
[0:00:38.800000],15.5361,-9.71321,-163.26,-0.155079,0.0633752,0.145439,0.975205,-0.296707,-0.0899979,0.0565632
[0:00:38.900000],15.419,-9.88954,-162.64,-0.160474,0.0642553,0.144996,0.974341,-0.298275,-0.101955,0.0539677
[0:00:39],15.3878,-10.1428,-162.142,-0.164958,0.0658279,0.145323,0.973438,-0.317338,-0.0801161,0.0469986
[0:00:39.100000],15.1398,-10.2432,-161.686,-0.168791,0.0664697,0.143606,0.972992,-0.304475,-0.103573,0.0522796
[0:00:39.200000],15.0675,-10.5329,-161.215,-0.173032,0.0684548,0.143642,0.972103,-0.297302,-0.0978645,0.0574748
[0:00:39.300000],15.0059,-10.7935,-160.741,-0.177274,0.0701724,0.14375,0.9712,-0.301039,-0.0774606,0.0561819
[0:00:39.400000],14.8408,-11.0445,-160.268,-0.18142,0.0719752,0.142984,0.970415,-0.304426,-0.0938001,0.0515556
[0:00:39.500000],14.7454,-11.3422,-159.717,-0.18631,0.0739704,0.142941,0.969344,-0.29701,-0.089766,0.0518689
[0:00:39.600000],14.5105,-11.5999,-159.122,-0.191433,0.0758056,0.141714,0.968384,-0.296779,-0.0706392,0.0573962
[0:00:39.700000],14.4399,-11.7326,-158.551,-0.196331,0.0763452,0.141692,0.967364,-0.301855,-0.075883,0.0523602
[0:00:39.800000],14.3487,-11.9618,-158.096,-0.200309,0.0778847,0.141575,0.966442,-0.30162,-0.0653211,0.0589341
[0:00:39.900000],14.2509,-12.2211,-157.689,-0.203909,0.0797503,0.14143,0.965558,-0.293289,-0.0508959,0.0550448
[0:00:40],14.0617,-12.5009,-157.265,-0.207586,0.0819371,0.140574,0.964716,-0.300195,-0.0646022,0.0603967
[0:00:40.100000],13.8591,-12.7672,-156.801,-0.211575,0.0839921,0.139632,0.963809,-0.295636,-0.0614966,0.0567049
[0:00:40.200000],13.6655,-13.0209,-156.233,-0.216408,0.0858089,0.13884,0.96269,-0.296901,-0.0415212,0.0492518
[0:00:40.300000],13.4906,-13.3138,-155.721,-0.220809,0.0879954,0.138252,0.961577,-0.290159,-0.0566707,0.0492587
[0:00:40.400000],13.3834,-13.5714,-155.142,-0.225785,0.0896781,0.138244,0.960267,-0.301246,-0.0514225,0.060777
[0:00:40.500000],13.1741,-13.7489,-154.602,-0.230274,0.0909419,0.137229,0.959227,-0.310971,-0.0543301,0.0600034
[0:00:40.600000],13.0427,-13.949,-154.139,-0.234196,0.0923377,0.136859,0.958196,-0.305085,-0.0449527,0.0560399
[0:00:40.700000],12.9291,-14.1649,-153.57,-0.23901,0.0937084,0.136767,0.956887,-0.298852,-0.0254784,0.0486254
[0:00:40.800000],12.8333,-14.415,-153.038,-0.243548,0.0953744,0.136873,0.955561,-0.285381,-0.0306771,0.0614606
[0:00:40.900000],12.6606,-14.6081,-152.502,-0.247999,0.0967261,0.136252,0.954369,-0.304635,-0.0311234,0.0543156
[0:00:41],12.5469,-14.7706,-152.021,-0.25201,0.0977651,0.13603,0.953243,-0.307501,-0.0411179,0.0603366
[0:00:41.100000],12.3442,-15.0129,-151.51,-0.256245,0.0996367,0.135265,0.952029,-0.308474,-0.035042,0.0480262
[0:00:41.200000],12.1665,-15.3434,-150.947,-0.260961,0.102137,0.134953,0.950526,-0.286454,-0.00677189,0.0602183
[0:00:41.300000],11.9736,-15.5746,-150.488,-0.264728,0.103972,0.134242,0.949385,-0.304443,-0.0227215,0.055038
[0:00:41.400000],11.7551,-15.8602,-150.002,-0.268715,0.106294,0.133476,0.948115,-0.281531,-0.024773,0.0499284
[0:00:41.500000],11.4542,-16.0214,-149.49,-0.272752,0.107755,0.13181,0.94703,-0.282039,-0.0232721,0.0662714
[0:00:41.600000],11.4264,-16.2458,-149.044,-0.276522,0.109175,0.132487,0.945678,-0.299595,0.00724779,0.0590666
[0:00:41.700000],11.1474,-16.4841,-148.462,-0.281172,0.111163,0.13127,0.944244,-0.288327,-0.0148582,0.0600331
[0:00:41.800000],10.9043,-16.6629,-147.938,-0.285335,0.112649,0.130181,0.942969,-0.29797,0.00437984,0.0514621
[0:00:41.900000],10.6708,-16.9068,-147.315,-0.290326,0.114551,0.129435,0.941318,-0.275556,0.0022172,0.0602396
[0:00:42],10.5837,-17.062,-146.739,-0.295028,0.115407,0.129659,0.939719,-0.303477,0.0145954,0.0537915
[0:00:42.100000],10.4211,-17.2223,-146.288,-0.298624,0.116643,0.129163,0.938498,-0.283507,0.0170449,0.0621044
[0:00:42.200000],10.2455,-17.342,-145.655,-0.30367,0.117379,0.12866,0.936855,-0.290019,0.00966021,0.0608464
[0:00:42.300000],10.0588,-17.5843,-145.179,-0.307447,0.119339,0.128219,0.935435,-0.279892,0.0172766,0.0552002
[0:00:42.400000],9.98625,-17.767,-144.633,-0.311882,0.120426,0.128652,0.933767,-0.284578,0.0301687,0.0559434
[0:00:42.500000],9.80266,-17.9378,-144.078,-0.316263,0.121708,0.128174,0.932191,-0.280518,0.00543725,0.0544268
[0:00:42.600000],9.61495,-18.1514,-143.539,-0.320502,0.123378,0.127772,0.930578,-0.287847,0.0369617,0.0547953
[0:00:42.700000],9.52209,-18.448,-143.079,-0.324206,0.125553,0.128287,0.928931,-0.272864,0.0267863,0.061208
[0:00:42.800000],9.35554,-18.6752,-142.563,-0.328251,0.127307,0.128105,0.927296,-0.265211,0.0375243,0.0731711
[0:00:42.900000],9.08129,-18.923,-141.933,-0.333091,0.129416,0.127256,0.925393,-0.271929,0.0240317,0.0706459
[0:00:43],8.91038,-19.0135,-141.442,-0.336876,0.130108,0.126678,0.924004,-0.282395,0.0300721,0.0666847
[0:00:43.100000],8.66926,-19.2422,-140.866,-0.341268,0.132046,0.126023,0.922205,-0.279697,0.0461033,0.0574812
[0:00:43.200000],8.46643,-19.3882,-140.308,-0.345541,0.133225,0.125447,0.920521,-0.267881,0.0527672,0.0646533
[0:00:43.300000],8.28214,-19.4942,-139.737,-0.349914,0.134019,0.124933,0.918822,-0.28177,0.0568952,0.066346
[0:00:43.400000],8.01608,-19.7619,-139.211,-0.353838,0.136426,0.124193,0.917064,-0.269203,0.0461886,0.0592836
[0:00:43.500000],7.84768,-20.0232,-138.761,-0.357238,0.138569,0.124146,0.915429,-0.279473,0.0459662,0.0683128
[0:00:43.600000],7.69993,-20.2134,-138.16,-0.361855,0.139913,0.124257,0.913394,-0.257261,0.059384,0.0649653
[0:00:43.700000],7.40265,-20.4661,-137.597,-0.365968,0.142279,0.123339,0.911513,-0.278426,0.041032,0.0718886
[0:00:43.800000],7.14202,-20.6013,-137.093,-0.369638,0.143659,0.122305,0.909953,-0.270076,0.068983,0.0647852
[0:00:43.900000],7.00202,-20.7829,-136.635,-0.373082,0.145076,0.122328,0.908319,-0.251739,0.0597925,0.0741597
[0:00:44],6.64594,-20.9238,-136.031,-0.377397,0.146727,0.120715,0.906485,-0.273568,0.0610245,0.0718355
[0:00:44.100000],6.4709,-21.0817,-135.459,-0.381673,0.147962,0.120564,0.904512,-0.262959,0.0698302,0.0737121
[0:00:44.200000],6.2458,-21.1898,-134.986,-0.385097,0.149078,0.119747,0.902984,-0.260262,0.0601197,0.0661702
[0:00:44.300000],6.05267,-21.474,-134.446,-0.389037,0.151421,0.119849,0.90089,-0.260916,0.0753977,0.0723268
[0:00:44.400000],5.85663,-21.7088,-133.831,-0.393556,0.153305,0.119894,0.898599,-0.261125,0.0749952,0.0785618
[0:00:44.500000],5.5621,-21.967,-133.284,-0.397372,0.15579,0.119176,0.896586,-0.243397,0.0678862,0.084028
[0:00:44.600000],5.36384,-22.1247,-132.689,-0.401706,0.157105,0.118966,0.89445,-0.250342,0.0850322,0.0691868
[0:00:44.700000],4.96147,-22.3433,-132.054,-0.406035,0.159584,0.117449,0.892254,-0.25424,0.073509,0.0766916
[0:00:44.800000],4.77927,-22.4792,-131.486,-0.410149,0.160715,0.117291,0.890188,-0.268517,0.0924451,0.0854608
[0:00:44.900000],4.4852,-22.5707,-130.946,-0.413891,0.161938,0.116088,0.88839,-0.261386,0.107047,0.0760442
[0:00:45],4.32513,-22.7576,-130.509,-0.416972,0.163532,0.116124,0.886651,-0.256217,0.105319,0.0721552
[0:00:45.100000],4.03666,-22.994,-129.915,-0.421043,0.165825,0.115586,0.884369,-0.237437,0.0901041,0.0804353
[0:00:45.200000],3.83659,-23.1502,-129.454,-0.424234,0.16731,0.115274,0.882603,-0.249527,0.0894763,0.0850036
[0:00:45.300000],3.50722,-23.4576,-128.961,-0.427386,0.170418,0.114578,0.880576,-0.235412,0.0900592,0.0903841
[0:00:45.400000],3.30059,-23.5567,-128.496,-0.430592,0.171493,0.114047,0.878873,-0.252623,0.0945003,0.0803177
[0:00:45.500000],3.11611,-23.7466,-128.017,-0.433875,0.173175,0.114053,0.876925,-0.2368,0.111985,0.0917951
[0:00:45.600000],2.81627,-23.8655,-127.417,-0.437937,0.174633,0.113114,0.874736,-0.241687,0.0952032,0.0942746
[0:00:45.700000],2.56354,-23.9641,-126.945,-0.44109,0.175894,0.112281,0.873005,-0.252295,0.107809,0.0842236
[0:00:45.800000],2.24859,-24.1603,-126.45,-0.444248,0.178126,0.111395,0.871062,-0.254873,0.105314,0.0876661
[0:00:45.900000],2.0202,-24.3051,-126.036,-0.446936,0.179716,0.110861,0.869427,-0.244909,0.127296,0.085515
[0:00:46],1.67453,-24.4978,-125.57,-0.449781,0.182085,0.10972,0.86761,-0.226975,0.123066,0.0864819
[0:00:46.100000],1.35861,-24.6624,-125.022,-0.453295,0.184056,0.108849,0.865472,-0.246739,0.124326,0.0932198
[0:00:46.200000],1.05724,-24.7432,-124.49,-0.456766,0.185359,0.107752,0.863505,-0.237277,0.119473,0.0877262
[0:00:46.300000],0.835918,-24.8222,-123.984,-0.46015,0.186365,0.107221,0.861555,-0.239018,0.121036,0.0879413
[0:00:46.400000],0.424701,-25.0449,-123.386,-0.46378,0.18914,0.106008,0.859151,-0.223987,0.133726,0.0981739
[0:00:46.500000],0.0660889,-25.2291,-122.797,-0.467432,0.191434,0.105049,0.856778,-0.223175,0.155023,0.0971355
[0:00:46.600000],-0.302884,-25.3377,-122.214,-0.471064,0.193224,0.103718,0.854546,-0.234594,0.147173,0.0977736
[0:00:46.700000],-0.709371,-25.5533,-121.604,-0.474707,0.195955,0.10262,0.852038,-0.229386,0.14679,0.0952341
[0:00:46.800000],-0.902892,-25.6852,-121.113,-0.477894,0.197296,0.102578,0.849949,-0.243118,0.164226,0.0957844
[0:00:46.900000],-1.14078,-25.8745,-120.726,-0.480158,0.199343,0.102283,0.848229,-0.213439,0.163971,0.0936859
[0:00:47],-1.37528,-26.0061,-120.337,-0.482486,0.200952,0.101786,0.846587,-0.211843,0.163722,0.0971519
[0:00:47.100000],-1.69475,-26.0812,-119.723,-0.486372,0.202311,0.100831,0.84415,-0.233101,0.146498,0.109335
[0:00:47.200000],-1.95834,-26.195,-119.205,-0.489587,0.203813,0.1003,0.841991,-0.23696,0.173609,0.0936177
[0:00:47.300000],-2.29541,-26.2943,-118.698,-0.492598,0.205539,0.0991654,0.839947,-0.218921,0.165364,0.109471
[0:00:47.400000],-2.71855,-26.3963,-118.093,-0.496142,0.207587,0.0976072,0.837537,-0.226682,0.153326,0.107864
[0:00:47.500000],-3.02546,-26.5019,-117.497,-0.499805,0.20918,0.0969194,0.835039,-0.205139,0.154474,0.0996469
[0:00:47.600000],-3.23431,-26.6249,-117.014,-0.502786,0.210573,0.0968343,0.832906,-0.21359,0.181054,0.112991
[0:00:47.700000],-3.50629,-26.713,-116.536,-0.505642,0.212,0.0961375,0.830893,-0.208677,0.159186,0.103186
[0:00:47.800000],-3.80257,-26.7934,-116.115,-0.508041,0.213535,0.0951387,0.82915,-0.221099,0.168514,0.103561
[0:00:47.900000],-4.16629,-26.9007,-115.664,-0.510475,0.215547,0.093844,0.82728,-0.220695,0.182407,0.107484
[0:00:48],-4.4859,-27.0571,-115.176,-0.51318,0.21769,0.0931821,0.825117,-0.199812,0.186905,0.102745
[0:00:48.100000],-4.63428,-27.1181,-114.807,-0.515465,0.21849,0.0930987,0.823489,-0.224015,0.192521,0.11745
[0:00:48.200000],-4.89615,-27.2293,-114.348,-0.518108,0.220085,0.0926168,0.821457,-0.220431,0.177274,0.11922
[0:00:48.300000],-5.31939,-27.3711,-113.856,-0.520609,0.222609,0.0912019,0.819352,-0.212803,0.174373,0.115075
[0:00:48.400000],-5.57254,-27.4912,-113.442,-0.522894,0.224278,0.0907675,0.817488,-0.214237,0.20382,0.111586
[0:00:48.500000],-5.95363,-27.676,-112.943,-0.525421,0.226922,0.0899128,0.815229,-0.19616,0.181154,0.127275
[0:00:48.600000],-6.31624,-27.8371,-112.449,-0.527966,0.229326,0.0890927,0.812999,-0.217082,0.200743,0.113367
[0:00:48.700000],-6.70708,-27.9895,-112.02,-0.52998,0.231858,0.0879202,0.811096,-0.206492,0.195727,0.125479
[0:00:48.800000],-6.98924,-28.016,-111.479,-0.533192,0.232936,0.0871525,0.808762,-0.207511,0.195258,0.131767
[0:00:48.900000],-7.29977,-28.0356,-111.098,-0.535209,0.234232,0.0858347,0.807194,-0.213611,0.212009,0.12355
[0:00:49],-7.57574,-28.0113,-110.705,-0.53745,0.235063,0.0845787,0.805595,-0.216349,0.191776,0.122621
[0:00:49.100000],-7.95754,-28.1379,-110.173,-0.540189,0.237335,0.0836218,0.803193,-0.21482,0.218945,0.117608
[0:00:49.200000],-8.32445,-28.2671,-109.645,-0.542898,0.239567,0.0827949,0.800786,-0.192027,0.197221,0.122941
[0:00:49.300000],-8.68897,-28.4504,-109.272,-0.544418,0.242273,0.081953,0.799024,-0.190753,0.211322,0.131193
[0:00:49.400000],-9.04634,-28.5721,-108.849,-0.546392,0.244497,0.080976,0.797097,-0.193169,0.211028,0.130902
[0:00:49.500000],-9.39251,-28.6964,-108.322,-0.549084,0.246618,0.0803303,0.794655,-0.202825,0.21225,0.128505
[0:00:49.600000],-9.72496,-28.6602,-107.829,-0.55185,0.247629,0.0789078,0.792565,-0.210694,0.228124,0.127037
[0:00:49.700000],-9.94799,-28.6458,-107.443,-0.554058,0.248344,0.0781274,0.790876,-0.206077,0.209294,0.1333
[0:00:49.800000],-10.2525,-28.7084,-106.985,-0.556435,0.249926,0.0773473,0.788783,-0.196782,0.232164,0.134146
[0:00:49.900000],-10.5221,-28.664,-106.544,-0.558965,0.250647,0.076229,0.786872,-0.197812,0.227319,0.142825
[0:00:50],-10.9545,-28.7356,-105.997,-0.561628,0.252873,0.0748397,0.784393,-0.185724,0.220833,0.142754
[0:00:50.100000],-11.2957,-28.757,-105.516,-0.56412,0.254378,0.0736854,0.782224,-0.191668,0.228241,0.146685
[0:00:50.200000],-11.527,-28.7313,-105.071,-0.56669,0.255066,0.0729619,0.780207,-0.186147,0.228947,0.139666
[0:00:50.300000],-11.8579,-28.7018,-104.61,-0.569148,0.256222,0.0715856,0.778165,-0.199917,0.25007,0.149911
[0:00:50.400000],-12.2424,-28.6736,-104.249,-0.57079,0.257728,0.0696363,0.77664,-0.199057,0.224138,0.138214
[0:00:50.500000],-12.401,-28.6614,-103.943,-0.572534,0.258254,0.0691881,0.77522,-0.195514,0.245209,0.133627
[0:00:50.600000],-12.7157,-28.7996,-103.562,-0.574112,0.260493,0.0686674,0.773348,-0.173399,0.249659,0.14014
[0:00:50.700000],-13.0649,-28.7601,-103.23,-0.575634,0.261794,0.0668554,0.771935,-0.195133,0.236509,0.150468
[0:00:50.800000],-13.3617,-28.7883,-102.912,-0.577039,0.263282,0.0657413,0.770474,-0.171943,0.248381,0.145815
[0:00:50.900000],-13.6603,-28.8467,-102.563,-0.578571,0.264962,0.0648584,0.768822,-0.1978,0.253745,0.141256
[0:00:51],-13.9813,-28.9022,-102.143,-0.580517,0.266703,0.0639838,0.766824,-0.195779,0.256139,0.146116
[0:00:51.100000],-14.3652,-28.8513,-101.685,-0.582794,0.268076,0.0622091,0.764762,-0.18426,0.248932,0.155133
[0:00:51.200000],-14.5229,-28.9076,-101.348,-0.584548,0.269052,0.0622586,0.763074,-0.181947,0.264209,0.144719
[0:00:51.300000],-14.7472,-28.9451,-100.977,-0.586406,0.270232,0.0618477,0.761262,-0.174096,0.262623,0.157914
[0:00:51.400000],-15.0343,-28.8344,-100.664,-0.588049,0.270842,0.0600658,0.75992,-0.187175,0.256849,0.157529
[0:00:51.500000],-15.406,-28.8281,-100.285,-0.589699,0.272516,0.0584697,0.758166,-0.190497,0.260394,0.150669
[0:00:51.600000],-15.6487,-28.7739,-100.034,-0.590899,0.273302,0.0571587,0.757047,-0.168062,0.256464,0.15861
[0:00:51.700000],-15.8342,-28.7825,-99.6993,-0.592645,0.274147,0.0567826,0.755403,-0.166728,0.265584,0.156092
[0:00:51.800000],-16.1127,-28.8006,-99.2981,-0.594578,0.275504,0.0560138,0.753446,-0.171827,0.247605,0.153625
[0:00:51.900000],-16.2592,-28.7067,-99.0578,-0.59602,0.275568,0.0550983,0.752349,-0.173258,0.26847,0.15685
[0:00:52],-16.4965,-28.665,-98.6744,-0.598059,0.276365,0.0542287,0.7505,-0.165173,0.260154,0.153816
[0:00:52.100000],-16.8877,-28.7086,-98.3216,-0.599319,0.278511,0.052773,0.748803,-0.173226,0.264444,0.161806
[0:00:52.200000],-17.1762,-28.7299,-98.0482,-0.600351,0.280026,0.0516778,0.747487,-0.169401,0.27191,0.160707
[0:00:52.300000],-17.4328,-28.6971,-97.718,-0.601953,0.281024,0.0506269,0.745894,-0.18483,0.260666,0.161856
[0:00:52.400000],-17.7816,-28.6679,-97.2766,-0.604034,0.28249,0.0492772,0.743746,-0.175777,0.263573,0.162872
[0:00:52.500000],-18.0603,-28.6291,-96.9609,-0.605486,0.283592,0.0480262,0.742226,-0.185741,0.25449,0.159421
[0:00:52.600000],-18.4048,-28.4636,-96.6666,-0.606935,0.284298,0.0455665,0.740926,-0.181983,0.258841,0.160312
[0:00:52.700000],-18.669,-28.3496,-96.3856,-0.608371,0.284905,0.0438961,0.739615,-0.154905,0.263536,0.173643
[0:00:52.800000],-18.9865,-28.3152,-96.0846,-0.609605,0.286273,0.0423987,0.738157,-0.159808,0.259822,0.167563
[0:00:52.900000],-19.3304,-28.2286,-95.6882,-0.611507,0.287446,0.0406724,0.736223,-0.176055,0.287084,0.170879
[0:00:53],-19.6336,-28.2318,-95.3889,-0.612657,0.288979,0.0394983,0.734728,-0.167742,0.278471,0.1666
[0:00:53.100000],-19.8394,-28.1059,-95.1336,-0.614086,0.289249,0.0380824,0.733503,-0.157809,0.270267,0.173772
[0:00:53.200000],-20.2,-27.9688,-94.827,-0.615476,0.290277,0.0357435,0.732048,-0.166623,0.28881,0.161617
[0:00:53.300000],-20.4678,-27.8687,-94.496,-0.61716,0.291027,0.0342816,0.730401,-0.170755,0.29315,0.173576
[0:00:53.400000],-20.7678,-27.6868,-94.1793,-0.618871,0.291488,0.0320959,0.728867,-0.160378,0.27335,0.17956
[0:00:53.500000],-21.0467,-27.5629,-93.9126,-0.620168,0.292199,0.0302651,0.727557,-0.153945,0.274685,0.167528
[0:00:53.600000],-21.304,-27.4755,-93.5197,-0.622223,0.292984,0.0291153,0.725531,-0.175603,0.295071,0.168859
[0:00:53.700000],-21.6151,-27.2952,-93.2567,-0.623549,0.293565,0.0267401,0.724248,-0.174823,0.293436,0.165003
[0:00:53.800000],-21.9838,-27.291,-92.9267,-0.624695,0.295474,0.0252356,0.722536,-0.146071,0.280387,0.175579
[0:00:53.900000],-22.1779,-27.1916,-92.7514,-0.625554,0.295923,0.0238668,0.721655,-0.155393,0.281829,0.168896
[0:00:54],-22.5185,-27.0298,-92.4051,-0.627268,0.296786,0.021644,0.71988,-0.163377,0.288799,0.180642
[0:00:54.100000],-22.7029,-26.8122,-92.1461,-0.628977,0.296505,0.0198398,0.718556,-0.157245,0.306941,0.181075
[0:00:54.200000],-22.9866,-26.6121,-91.8757,-0.630453,0.296877,0.0175482,0.717167,-0.151622,0.293683,0.174081
[0:00:54.300000],-23.3453,-26.4248,-91.531,-0.632162,0.297738,0.0150618,0.71536,-0.163163,0.291595,0.184954
[0:00:54.400000],-23.6527,-26.3757,-91.3486,-0.632627,0.299133,0.0133202,0.714401,-0.139141,0.29829,0.184017
[0:00:54.500000],-23.8692,-26.2603,-91.2032,-0.633269,0.29966,0.0116472,0.71364,-0.146918,0.291739,0.171198
[0:00:54.600000],-24.103,-26.1351,-90.9812,-0.634366,0.300225,0.0100075,0.712453,-0.167539,0.297431,0.185782
[0:00:54.700000],-24.3349,-25.9102,-90.7673,-0.635675,0.300227,0.00774989,0.711312,-0.159558,0.30536,0.174412
[0:00:54.800000],-24.5143,-25.9009,-90.5885,-0.636338,0.301158,0.00704947,0.710332,-0.142444,0.303987,0.185156
[0:00:54.900000],-24.6514,-25.656,-90.4349,-0.637572,0.300538,0.00509782,0.709504,-0.160933,0.299091,0.182714
[0:00:55],-24.7787,-25.5538,-90.1846,-0.639054,0.300665,0.00433881,0.708121,-0.139855,0.322168,0.183034
[0:00:55.100000],-25.0227,-25.3475,-89.9737,-0.640258,0.300867,0.00211346,0.706957,-0.150946,0.304701,0.174217
[0:00:55.200000],-25.298,-25.2627,-89.7186,-0.641329,0.301931,0.00056467,0.705534,-0.147656,0.311587,0.176834
[0:00:55.300000],-25.4746,-25.1465,-89.5771,-0.64204,0.302274,-0.000868308,0.704739,-0.133918,0.312891,0.184756
[0:00:55.400000],-25.6661,-25.073,-89.4233,-0.642673,0.302942,-0.00209428,0.703872,-0.153509,0.311828,0.180629
[0:00:55.500000],-25.8763,-24.8151,-89.2518,-0.643852,0.302698,-0.00453045,0.702888,-0.143325,0.301428,0.188727
[0:00:55.600000],-26.1563,-24.648,-88.946,-0.645427,0.303364,-0.00647477,0.701139,-0.146962,0.305158,0.190431
[0:00:55.700000],-26.288,-24.5331,-88.7818,-0.646386,0.303483,-0.00756073,0.700192,-0.136899,0.329253,0.177668
[0:00:55.800000],-26.5392,-24.2943,-88.5564,-0.647728,0.303605,-0.00998591,0.698868,-0.155869,0.331642,0.186445
[0:00:55.900000],-26.6879,-24.1434,-88.3725,-0.648854,0.303635,-0.0113466,0.697789,-0.146448,0.329298,0.188126
[0:00:56],-26.9199,-23.8708,-88.2164,-0.64991,0.303473,-0.0140488,0.696827,-0.149976,0.308632,0.175799
[0:00:56.100000],-27.087,-23.6868,-88.0261,-0.651109,0.30344,-0.0157116,0.695685,-0.13837,0.332105,0.183426
[0:00:56.200000],-27.3539,-23.3754,-87.8002,-0.652595,0.303291,-0.0186838,0.694283,-0.144922,0.31767,0.192726
[0:00:56.300000],-27.5315,-23.1418,-87.6255,-0.653798,0.303059,-0.0207627,0.693192,-0.153689,0.320572,0.186263
[0:00:56.400000],-27.6812,-22.9299,-87.4947,-0.654751,0.302786,-0.0226528,0.692353,-0.132952,0.338327,0.187316
[0:00:56.500000],-27.9528,-22.6604,-87.2889,-0.655984,0.302917,-0.0254435,0.69103,-0.152359,0.312587,0.193359
[0:00:56.600000],-28.2082,-22.5339,-87.0739,-0.656936,0.303743,-0.0272097,0.689694,-0.129628,0.332486,0.186551
[0:00:56.700000],-28.3704,-22.359,-87.0116,-0.657341,0.303742,-0.0291231,0.68923,-0.135841,0.328447,0.187986
[0:00:56.800000],-28.5041,-22.0813,-86.8052,-0.658958,0.303062,-0.031132,0.687897,-0.13056,0.342632,0.185633
[0:00:56.900000],-28.7871,-21.8798,-86.5827,-0.660071,0.303666,-0.0335129,0.686449,-0.124004,0.3164,0.189604
[0:00:57],-28.9,-21.7454,-86.4007,-0.661215,0.303647,-0.0345568,0.685305,-0.125854,0.33954,0.187647
[0:00:57.100000],-29.076,-21.5556,-86.1668,-0.662643,0.303716,-0.0361905,0.683809,-0.144993,0.3184,0.194676
[0:00:57.200000],-29.1437,-21.3041,-86.0683,-0.66371,0.30279,-0.0379285,0.68309,-0.141517,0.341503,0.190392
[0:00:57.300000],-29.3568,-21.1252,-85.9974,-0.664037,0.303088,-0.0401458,0.682513,-0.141352,0.347521,0.184814
[0:00:57.400000],-29.4761,-20.9791,-85.827,-0.665117,0.303058,-0.0413323,0.681404,-0.134395,0.330987,0.184543
[0:00:57.500000],-29.7181,-20.6873,-85.5878,-0.666659,0.302993,-0.043992,0.679757,-0.140743,0.323046,0.188823
[0:00:57.600000],-29.827,-20.4169,-85.4234,-0.668049,0.302248,-0.0459249,0.678595,-0.139558,0.345434,0.177894
[0:00:57.700000],-30.0788,-20.1598,-85.2743,-0.668934,0.302407,-0.0486585,0.677461,-0.143772,0.327443,0.180251
[0:00:57.800000],-30.1823,-19.821,-85.1369,-0.670349,0.301268,-0.0510678,0.676392,-0.133395,0.350312,0.189915
[0:00:57.900000],-30.4348,-19.4549,-84.9741,-0.671589,0.300872,-0.0544642,0.675071,-0.130306,0.338072,0.194916
[0:00:58],-30.695,-19.172,-84.7805,-0.672773,0.300989,-0.0572936,0.673605,-0.124913,0.338016,0.178722
[0:00:58.100000],-30.8381,-18.9369,-84.6864,-0.673553,0.30063,-0.0593891,0.672804,-0.111514,0.331391,0.187995
[0:00:58.200000],-30.9692,-18.605,-84.6027,-0.674549,0.299685,-0.0620601,0.671986,-0.136303,0.362223,0.190134
[0:00:58.300000],-31.0654,-18.4033,-84.3822,-0.676103,0.299303,-0.0633376,0.670473,-0.124846,0.351956,0.182917
[0:00:58.400000],-31.2454,-18.1325,-84.2176,-0.677283,0.299025,-0.0656929,0.669178,-0.128904,0.362721,0.186
[0:00:58.500000],-31.3084,-17.942,-84.0493,-0.678583,0.298488,-0.0668434,0.667986,-0.119333,0.359023,0.184503
[0:00:58.600000],-31.5347,-17.5634,-83.925,-0.679674,0.297904,-0.0702647,0.666785,-0.12714,0.353089,0.183279
[0:00:58.700000],-31.7674,-17.2222,-83.7602,-0.680885,0.297588,-0.0733783,0.665353,-0.118222,0.358849,0.188681
[0:00:58.800000],-31.8441,-16.859,-83.6163,-0.682431,0.296224,-0.0757817,0.664109,-0.12327,0.343338,0.189364
[0:00:58.900000],-32.0099,-16.5876,-83.4066,-0.683892,0.295923,-0.0779437,0.662488,-0.126484,0.368994,0.178625
[0:00:59],-32.116,-16.3237,-83.2296,-0.685295,0.295291,-0.0797968,0.661097,-0.120968,0.357642,0.18066
[0:00:59.100000],-32.2173,-16.0051,-83.1402,-0.686337,0.294286,-0.0822006,0.66017,-0.125332,0.342508,0.185624
[0:00:59.200000],-32.3669,-15.82,-82.9652,-0.687415,0.294338,-0.0838034,0.658822,-0.106662,0.344311,0.18042
[0:00:59.300000],-32.5462,-15.508,-82.8203,-0.688552,0.293885,-0.0864711,0.65749,-0.106058,0.367357,0.186778
[0:00:59.400000],-32.6729,-15.253,-82.7339,-0.689347,0.293377,-0.0886194,0.656598,-0.119405,0.355507,0.182416
[0:00:59.500000],-32.6842,-14.9331,-82.6191,-0.690753,0.291858,-0.0904531,0.655546,-0.110474,0.374701,0.191976
[0:00:59.600000],-32.6969,-14.6158,-82.5716,-0.691759,0.290309,-0.0924514,0.654895,-0.124162,0.369053,0.185715
[0:00:59.700000],-32.8343,-14.3574,-82.3822,-0.693113,0.28994,-0.0944224,0.653343,-0.0985556,0.361728,0.192555
[0:00:59.800000],-32.9961,-14.0625,-82.2807,-0.693987,0.28946,-0.0969901,0.652251,-0.109497,0.360928,0.182605
[0:00:59.900000],-33.0792,-13.7342,-82.1127,-0.695515,0.28839,-0.0991588,0.65077,-0.106376,0.354864,0.184844
[0:01:00],-30.5102,-13.3075,-83.499,-0.694827,0.269397,-0.090578,0.660827,-0.0605603,0.643434,0.152135
[0:01:00.100000],-28.1457,-12.8888,-84.7869,-0.693638,0.251827,-0.0824573,0.670004,-0.0320806,0.617196,0.136079
[0:01:00.200000],-25.8088,-12.3761,-85.9625,-0.692729,0.234042,-0.0744609,0.678277,-0.0108984,0.563449,0.123917
[0:01:00.300000],-23.506,-11.7743,-87.1291,-0.69146,0.216006,-0.0668393,0.686302,-0.0034962,0.541037,0.0954576
[0:01:00.400000],-21.4358,-11.2633,-88.2012,-0.689675,0.199991,-0.0595233,0.693585,0.00255725,0.503996,0.0777252
[0:01:00.500000],-19.4591,-10.7434,-89.2173,-0.687676,0.184567,-0.0524403,0.700384,0.0226337,0.466339,0.0734934
[0:01:00.600000],-17.56,-10.2537,-90.2258,-0.685174,0.169845,-0.045362,0.707023,0.0252394,0.434404,0.0692437
[0:01:00.700000],-15.716,-9.78366,-91.2137,-0.682339,0.155644,-0.0382163,0.713428,0.060113,0.386318,0.0487338
[0:01:00.800000],-14.0018,-9.31238,-92.2148,-0.678921,0.142274,-0.0316627,0.719771,0.0499138,0.377133,0.0349095
[0:01:00.900000],-12.3684,-8.88655,-93.1865,-0.675239,0.129746,-0.0250804,0.725836,0.0852066,0.341877,0.0405923
[0:01:01],-10.8017,-8.49652,-94.0341,-0.671968,0.117935,-0.0183696,0.731069,0.0881516,0.317924,0.0330608
[0:01:01.100000],-9.24792,-7.98843,-94.9675,-0.668004,0.105511,-0.0123416,0.736705,0.102177,0.272246,0.0295795
[0:01:01.200000],-7.90582,-7.53969,-95.7304,-0.664649,0.0947783,-0.00699353,0.741254,0.109937,0.247868,0.0103664
[0:01:01.300000],-6.59334,-7.16631,-96.412,-0.661548,0.0847572,-0.00119635,0.745262,0.125494,0.210116,0.0118014
[0:01:01.400000],-5.32651,-6.84944,-97.089,-0.658237,0.0754201,0.00475162,0.749173,0.137392,0.198858,0.013186
[0:01:01.500000],-4.15921,-6.52638,-97.7607,-0.654753,0.0666697,0.0101237,0.752992,0.133715,0.172217,0.0161089
[0:01:01.600000],-2.95362,-6.1948,-98.3824,-0.651486,0.0576935,0.0158278,0.756461,0.140077,0.162189,0.0115478
[0:01:01.700000],-1.95434,-5.92777,-99.1015,-0.647314,0.0503826,0.0205841,0.760439,0.166684,0.136338,-0.00195235
[0:01:01.800000],-0.977441,-5.60379,-99.814,-0.643091,0.0428724,0.0249656,0.764342,0.155586,0.123972,0.00839806
[0:01:01.900000],0.0291828,-5.16405,-100.494,-0.639009,0.0344641,0.0290044,0.768039,0.164143,0.0785333,-3.51667e-05
[0:01:02],1.01818,-4.79905,-101.194,-0.634645,0.0267073,0.0334336,0.771777,0.171893,0.0809865,0.00725967
[0:01:02.100000],1.88877,-4.45679,-101.846,-0.630472,0.0197921,0.0372902,0.775222,0.190176,0.0468523,-0.00193155
[0:01:02.200000],2.65902,-4.28886,-102.484,-0.626271,0.0146492,0.041496,0.77852,0.207808,0.0276515,0.00704491
[0:01:02.300000],3.47521,-4.07314,-102.966,-0.623078,0.00891482,0.0458259,0.780922,0.214493,0.0170509,0.00112283
[0:01:02.400000],4.15631,-3.7826,-103.539,-0.61919,0.00347381,0.0488742,0.783867,0.217171,0.00415722,3.95775e-05
[0:01:02.500000],4.9494,-3.56886,-104.136,-0.615083,-0.00199809,0.0531574,0.786822,0.207832,-0.0167728,-0.00276506
[0:01:02.600000],5.54536,-3.37037,-104.753,-0.610789,-0.00625901,0.0562211,0.789925,0.221727,-0.0445258,-0.000803113
[0:01:02.700000],6.08378,-3.2419,-105.252,-0.607276,-0.00975689,0.0592924,0.792369,0.220243,-0.0472805,0.0114327
[0:01:02.800000],6.61773,-3.13102,-105.814,-0.603307,-0.0130479,0.0624627,0.795106,0.236274,-0.063559,0.00496978
[0:01:02.900000],7.12395,-2.93264,-106.416,-0.599002,-0.0167502,0.0650231,0.798081,0.250047,-0.0709976,0.0111529
[0:01:03],7.71367,-2.74022,-106.843,-0.595862,-0.0209203,0.0682059,0.800064,0.250044,-0.0870113,0.0108507
[0:01:03.100000],8.25967,-2.62519,-107.342,-0.592223,-0.0242518,0.0715275,0.802379,0.261083,-0.0963902,0.0133619
[0:01:03.200000],8.74648,-2.43189,-107.749,-0.589182,-0.0278604,0.0740401,0.80427,0.241199,-0.107554,0.016789
[0:01:03.300000],9.28633,-2.34878,-108.279,-0.585282,-0.0308612,0.0775458,0.806674,0.251071,-0.113321,0.0117946
[0:01:03.400000],9.73148,-2.27023,-108.745,-0.581828,-0.0333607,0.0804155,0.808789,0.249877,-0.138015,0.0186997
[0:01:03.500000],10.1547,-2.24699,-109.204,-0.57845,-0.0353396,0.083426,0.810821,0.261879,-0.150232,0.0197141
[0:01:03.600000],10.6321,-2.15196,-109.687,-0.574823,-0.0380582,0.0864868,0.812954,0.252428,-0.144395,0.0182841
[0:01:03.700000],10.8928,-2.07392,-110.116,-0.571637,-0.0395902,0.0880953,0.814952,0.262639,-0.174689,0.0244559
[0:01:03.800000],11.3199,-1.93979,-110.552,-0.568301,-0.0423313,0.0906274,0.816867,0.270228,-0.186104,0.0181803
[0:01:03.900000],11.6766,-2.00349,-111.057,-0.564606,-0.0432326,0.0936745,0.819036,0.273511,-0.178217,0.0121946
[0:01:04],11.9556,-2.05714,-111.519,-0.561226,-0.0438354,0.0961089,0.821042,0.281487,-0.203055,0.0254917
[0:01:04.100000],12.3935,-2.0113,-111.997,-0.557597,-0.0458951,0.0992139,0.823031,0.270079,-0.193559,0.0307357
[0:01:04.200000],12.7019,-1.97303,-112.444,-0.55423,-0.0472753,0.101428,0.824955,0.27862,-0.214684,0.0216281
[0:01:04.300000],13.0588,-1.9152,-112.915,-0.550642,-0.0489909,0.10392,0.826945,0.278286,-0.23138,0.034273
[0:01:04.400000],13.3385,-1.97573,-113.335,-0.547533,-0.049507,0.106409,0.82866,0.270761,-0.251014,0.0291968
[0:01:04.500000],13.5633,-1.88581,-113.823,-0.543826,-0.0507733,0.107825,0.830839,0.280325,-0.251362,0.0275543
[0:01:04.600000],13.691,-1.82894,-114.235,-0.540736,-0.0514021,0.108668,0.832705,0.283514,-0.255304,0.0353116
[0:01:04.700000],13.9656,-1.81714,-114.611,-0.53787,-0.0524207,0.11078,0.834218,0.277494,-0.247263,0.035718
[0:01:04.800000],14.1086,-1.81648,-115.082,-0.534369,-0.0526361,0.112035,0.836284,0.271463,-0.260791,0.0338804
[0:01:04.900000],14.3783,-1.83188,-115.649,-0.530111,-0.0532154,0.114338,0.838642,0.27919,-0.279021,0.0302234
[0:01:05],14.5037,-1.88761,-116.153,-0.526409,-0.052878,0.115745,0.8408,0.277058,-0.286441,0.0237196
[0:01:05.100000],14.636,-1.80355,-116.647,-0.522643,-0.0536017,0.116565,0.842987,0.265952,-0.287345,0.0307859
[0:01:05.200000],14.7646,-1.88016,-117.114,-0.519213,-0.0531426,0.118075,0.844923,0.254239,-0.299146,0.0384153
[0:01:05.300000],14.8399,-1.93693,-117.512,-0.516292,-0.0526512,0.119069,0.846603,0.256484,-0.306146,0.0260267
[0:01:05.400000],15.0895,-2.01267,-117.991,-0.512698,-0.0527065,0.121472,0.84844,0.256139,-0.292945,0.0301234
[0:01:05.500000],15.2603,-2.04883,-118.423,-0.509452,-0.0527387,0.123097,0.850158,0.254776,-0.325478,0.0296435
[0:01:05.600000],15.3837,-2.12379,-118.867,-0.506167,-0.0522475,0.124546,0.851937,0.242849,-0.328579,0.0428927
[0:01:05.700000],15.4725,-2.07298,-119.25,-0.50323,-0.0526004,0.12516,0.853564,0.248923,-0.331118,0.0332023
[0:01:05.800000],15.636,-2.05529,-119.759,-0.499338,-0.0528882,0.126537,0.855627,0.238489,-0.321051,0.043722
[0:01:05.900000],15.7431,-1.97492,-120.304,-0.495134,-0.0533515,0.127244,0.857933,0.245201,-0.337206,0.0287369
[0:01:06],15.8996,-2.07281,-120.784,-0.491563,-0.0527534,0.129057,0.859751,0.256128,-0.347873,0.0404648
[0:01:06.100000],15.8884,-2.03266,-121.169,-0.488634,-0.0525735,0.128979,0.861441,0.248833,-0.355931,0.0380678
[0:01:06.200000],15.974,-2.01825,-121.747,-0.484228,-0.0523925,0.129827,0.86381,0.23767,-0.36396,0.0371259
[0:01:06.300000],16.044,-1.93554,-122.137,-0.481175,-0.0528713,0.130189,0.86543,0.228554,-0.366491,0.0457773
[0:01:06.400000],16.068,-1.94761,-122.587,-0.477772,-0.0523678,0.130628,0.867278,0.23402,-0.368296,0.0475475
[0:01:06.500000],16.2044,-1.93521,-123.095,-0.47385,-0.0524465,0.131842,0.869239,0.240279,-0.367836,0.0436846
[0:01:06.600000],16.3808,-1.92109,-123.692,-0.46922,-0.052589,0.133398,0.871502,0.230637,-0.357731,0.0448445
[0:01:06.700000],16.4946,-1.92005,-124.186,-0.465402,-0.0524826,0.134486,0.873387,0.224308,-0.369339,0.0433915
[0:01:06.800000],16.4975,-1.94786,-124.653,-0.461866,-0.0517331,0.134833,0.875253,0.218634,-0.386291,0.0467184
[0:01:06.900000],16.4275,-1.87889,-125.104,-0.458377,-0.0514511,0.134226,0.877195,0.216664,-0.398314,0.039925
[0:01:07],16.4636,-1.84348,-125.565,-0.454788,-0.0513258,0.13457,0.879016,0.210751,-0.393859,0.0419762
[0:01:07.100000],16.3984,-1.80239,-126.129,-0.450447,-0.0507238,0.134159,0.881345,0.206524,-0.40089,0.034735
[0:01:07.200000],16.4424,-1.84685,-126.69,-0.446152,-0.049894,0.134917,0.88346,0.225096,-0.407236,0.0348536
[0:01:07.300000],16.443,-1.79977,-127.222,-0.441991,-0.0496334,0.134972,0.885554,0.198085,-0.392544,0.0440483
[0:01:07.400000],16.382,-1.79219,-127.717,-0.438183,-0.0488759,0.134684,0.887531,0.202124,-0.40782,0.0378841
[0:01:07.500000],16.4926,-1.85035,-128.344,-0.433333,-0.0481034,0.136026,0.889747,0.206236,-0.401361,0.0465168
[0:01:07.600000],16.5045,-1.76931,-128.923,-0.428744,-0.0480928,0.136059,0.891963,0.181893,-0.406395,0.0436035
[0:01:07.700000],16.4621,-1.74314,-129.419,-0.424863,-0.0475498,0.13584,0.89388,0.201088,-0.410206,0.039658
[0:01:07.800000],16.4033,-1.76535,-130.052,-0.419966,-0.0464092,0.135721,0.896269,0.19069,-0.422037,0.0398666
[0:01:07.900000],16.393,-1.69071,-130.662,-0.415111,-0.0462345,0.135617,0.898553,0.186255,-0.407592,0.0390453
[0:01:08],16.3654,-1.74247,-131.17,-0.411191,-0.0451266,0.135788,0.900384,0.18346,-0.419329,0.0339927
[0:01:08.100000],16.3173,-1.70269,-131.669,-0.407239,-0.0446773,0.135465,0.902249,0.180858,-0.404126,0.0473477
[0:01:08.200000],16.2992,-1.6892,-132.184,-0.403177,-0.0441117,0.135475,0.904098,0.158938,-0.435259,0.033336
[0:01:08.300000],16.3698,-1.6907,-132.696,-0.399103,-0.0437393,0.136234,0.905808,0.153418,-0.426187,0.0408245
[0:01:08.400000],16.3204,-1.65772,-133.311,-0.394219,-0.0430991,0.135962,0.908015,0.165041,-0.421152,0.0455084
[0:01:08.500000],16.2231,-1.56186,-133.806,-0.390225,-0.0429423,0.135052,0.909882,0.140102,-0.434489,0.0355889
[0:01:08.600000],16.1152,-1.62679,-134.38,-0.385771,-0.0413848,0.134624,0.911915,0.155266,-0.440608,0.0344851
[0:01:08.700000],16.1675,-1.49839,-135,-0.380672,-0.0418551,0.13484,0.914002,0.134679,-0.429661,0.0374264
[0:01:08.800000],16.0957,-1.41726,-135.631,-0.37557,-0.0415256,0.134231,0.916215,0.155442,-0.421386,0.0302075
[0:01:08.900000],16.1324,-1.28008,-136.263,-0.370349,-0.0420042,0.134313,0.918304,0.13684,-0.446188,0.0330168
[0:01:09],16.1851,-1.23264,-136.878,-0.365338,-0.0418311,0.134809,0.920244,0.129428,-0.4273,0.0363067
[0:01:09.100000],16.221,-1.13037,-137.548,-0.359831,-0.04198,0.135022,0.922373,0.140124,-0.434871,0.0405967
[0:01:09.200000],16.1385,-1.05981,-138.171,-0.354756,-0.0415586,0.134366,0.924452,0.124021,-0.433006,0.0476193
[0:01:09.300000],16.0344,-0.958188,-138.846,-0.349229,-0.0412716,0.133459,0.926697,0.12848,-0.454462,0.0353065
[0:01:09.400000],16.021,-0.851889,-139.406,-0.344579,-0.0414398,0.133233,0.928462,0.108606,-0.438254,0.0452845
[0:01:09.500000],16.0065,-0.7618,-140.049,-0.339273,-0.0413812,0.13308,0.930438,0.116343,-0.437224,0.032498
[0:01:09.600000],15.963,-0.737018,-140.623,-0.334594,-0.0407886,0.13286,0.932189,0.0909578,-0.45859,0.0332606
[0:01:09.700000],15.9193,-0.537888,-141.32,-0.328707,-0.041478,0.132181,0.934347,0.0946161,-0.433698,0.0435112
[0:01:09.800000],15.8875,-0.373952,-141.935,-0.323512,-0.0420176,0.131681,0.936204,0.0957072,-0.449711,0.0422394
[0:01:09.900000],15.8358,-0.322647,-142.641,-0.317699,-0.0414822,0.131372,0.93826,0.103011,-0.440848,0.0294746
[0:01:10],15.8805,-0.201538,-143.315,-0.312014,-0.0418229,0.131651,0.940112,0.0976178,-0.43684,0.0423735
[0:01:10.100000],15.9349,-0.169006,-143.936,-0.30686,-0.0415221,0.132236,0.941738,0.0782881,-0.444345,0.0298151
[0:01:10.200000],15.9167,0.00627267,-144.556,-0.301569,-0.0422017,0.131848,0.94347,0.08092,-0.457043,0.0448611
[0:01:10.300000],15.946,0.0631315,-145.268,-0.295622,-0.0419257,0.132202,0.945313,0.0889314,-0.458877,0.0347471
[0:01:10.400000],15.8332,0.109991,-145.928,-0.290154,-0.0412644,0.131391,0.947147,0.0716219,-0.441113,0.0460507
[0:01:10.500000],15.8526,0.109162,-146.561,-0.284915,-0.0405799,0.13178,0.948712,0.0678842,-0.450961,0.0291756
[0:01:10.600000],15.7632,0.147247,-147.337,-0.278465,-0.0397843,0.131217,0.950737,0.0647648,-0.458309,0.0295443
[0:01:10.700000],15.7999,0.3239,-147.958,-0.273096,-0.0406281,0.131314,0.952244,0.0405652,-0.45111,0.0329055
[0:01:10.800000],15.7273,0.414411,-148.61,-0.267587,-0.0404628,0.130727,0.953894,0.0346376,-0.463559,0.035867
[0:01:10.900000],15.7156,0.523543,-149.3,-0.261715,-0.0405576,0.130621,0.955533,0.0477727,-0.453288,0.0430284
[0:01:11],15.5614,0.711169,-149.952,-0.25611,-0.0410349,0.12914,0.957231,0.0326146,-0.462039,0.0353184
[0:01:11.100000],15.4585,0.925732,-150.729,-0.249402,-0.0417288,0.128084,0.959112,0.0396549,-0.456144,0.0381852
[0:01:11.200000],15.4039,1.14792,-151.382,-0.243699,-0.0427434,0.127385,0.960625,0.0243061,-0.453071,0.0442256
[0:01:11.300000],15.4157,1.34104,-152.082,-0.237593,-0.0436079,0.127338,0.962121,0.0272486,-0.441409,0.0326927
[0:01:11.400000],15.3649,1.41024,-152.898,-0.230671,-0.0431788,0.127076,0.963858,0.0240615,-0.450495,0.0409686
[0:01:11.500000],15.371,1.53384,-153.716,-0.223643,-0.0433234,0.127188,0.965492,0.0236545,-0.461875,0.0381817
[0:01:11.600000],15.3953,1.68511,-154.387,-0.217797,-0.0438985,0.127352,0.96678,0.00908171,-0.442428,0.0315305
[0:01:11.700000],15.3299,1.73209,-155.153,-0.211298,-0.043322,0.127002,0.968293,0.0150282,-0.432105,0.0358292
[0:01:11.800000],15.2834,1.94169,-155.906,-0.204698,-0.0441741,0.126508,0.969736,-0.00518018,-0.435929,0.0300516
[0:01:11.900000],15.3368,2.03532,-156.624,-0.198492,-0.0442661,0.12707,0.970947,0.011895,-0.433762,0.0448791
[0:01:12],15.391,2.30346,-157.388,-0.191672,-0.0457799,0.127361,0.972209,-0.0060725,-0.438044,0.0366937
[0:01:12.100000],15.3482,2.42369,-158.158,-0.185016,-0.0458748,0.127102,0.973527,-0.0122156,-0.433457,0.040608
[0:01:12.200000],15.194,2.47031,-159.033,-0.177577,-0.0450596,0.126063,0.975084,0.00434444,-0.45478,0.0431679
[0:01:12.300000],15.193,2.73933,-159.86,-0.170219,-0.0464358,0.125963,0.976344,-0.0169661,-0.436213,0.0318947
[0:01:12.400000],15.1243,2.9657,-160.574,-0.163899,-0.0474804,0.125327,0.977456,-0.0209547,-0.430001,0.0368987
[0:01:12.500000],15.0473,3.06916,-161.315,-0.157483,-0.047445,0.124826,0.978576,-0.0236682,-0.437652,0.0265705
[0:01:12.600000],15.0559,3.25493,-162.026,-0.151184,-0.0482661,0.124934,0.979515,-0.0287315,-0.431952,0.0407593
[0:01:12.700000],14.9225,3.40099,-162.803,-0.14442,-0.0484971,0.123924,0.980652,-0.0299708,-0.433452,0.043291
[0:01:12.800000],14.9795,3.53859,-163.558,-0.137773,-0.0489254,0.124554,0.981507,-0.0192728,-0.421373,0.0292836
[0:01:12.900000],15.0059,3.6486,-164.306,-0.131227,-0.0490838,0.124964,0.982343,-0.0442731,-0.433628,0.0300686
[0:01:13],14.9839,3.74394,-165.237,-0.123132,-0.0488592,0.12506,0.98339,-0.0384621,-0.431093,0.0386774
[0:01:13.100000],14.9166,3.88746,-166.156,-0.115105,-0.0490185,0.124715,0.984398,-0.0329722,-0.431749,0.0295029
[0:01:13.200000],14.9707,4.05648,-167.082,-0.106925,-0.0495108,0.125401,0.985208,-0.0614623,-0.413259,0.0323238
[0:01:13.300000],14.9129,4.1437,-167.996,-0.0989844,-0.0492083,0.125213,0.986077,-0.0370558,-0.412686,0.030278
[0:01:13.400000],14.8148,4.42482,-168.876,-0.0911251,-0.050585,0.124495,0.986855,-0.0543188,-0.423698,0.0431948
[0:01:13.500000],14.8448,4.60862,-169.67,-0.0840636,-0.0513256,0.124949,0.987386,-0.047947,-0.422184,0.026971
[0:01:13.600000],14.7536,4.81205,-170.583,-0.0759991,-0.0520196,0.124415,0.988071,-0.0633294,-0.405745,0.03881
[0:01:13.700000],14.7227,4.98333,-171.369,-0.0690324,-0.0526217,0.124383,0.988554,-0.0663934,-0.424326,0.0329397
[0:01:13.800000],14.6649,5.12407,-172.182,-0.061884,-0.0529202,0.124164,0.989039,-0.0533874,-0.417257,0.0301473
[0:01:13.900000],14.5552,5.29666,-173.075,-0.0540273,-0.0533878,0.123527,0.989554,-0.0808442,-0.404721,0.0351187
[0:01:14],14.5945,5.47524,-173.9,-0.0466781,-0.0540538,0.124156,0.989813,-0.0779242,-0.414708,0.033376
[0:01:14.100000],14.6101,5.64821,-174.696,-0.0395962,-0.0546884,0.124585,0.990032,-0.0721119,-0.395,0.0358642
[0:01:14.200000],14.4745,5.75448,-175.683,-0.0310096,-0.054494,0.12384,0.990443,-0.0810085,-0.41245,0.0283705
[0:01:14.300000],14.3782,5.80485,-176.626,-0.0228541,-0.0538898,0.123435,0.990748,-0.0674997,-0.391825,0.0340818
[0:01:14.400000],14.2417,5.92928,-177.547,-0.0148082,-0.0539526,0.122655,0.990995,-0.0854809,-0.403023,0.0271196
[0:01:14.500000],14.2445,6.02306,-178.379,-0.00751357,-0.0538721,0.123051,0.991032,-0.0970976,-0.381301,0.0272977
[0:01:14.600000],14.3063,6.16004,-179.208,-0.000159312,-0.0541639,0.123956,0.990932,-0.0927063,-0.37593,0.0339722
[0:01:14.700000],14.3519,6.33047,179.992,0.00696391,-0.054768,0.124715,0.990779,-0.085782,-0.391142,0.0305142
[0:01:14.800000],14.429,6.44227,179.13,0.0145777,-0.0547844,0.125791,0.990559,-0.0913503,-0.384817,0.0412492
[0:01:14.900000],14.3976,6.56747,178.258,0.0222377,-0.0549136,0.125941,0.990391,-0.101752,-0.372569,0.0396445
[0:01:15],14.4257,6.79933,177.317,0.0306354,-0.0558734,0.126663,0.990021,-0.107438,-0.388611,0.0288688
[0:01:15.100000],14.4466,6.88447,176.359,0.0390096,-0.0555413,0.127324,0.98966,-0.101324,-0.371583,0.0421308
[0:01:15.200000],14.4162,7.06339,175.399,0.0474804,-0.0560299,0.127572,0.98923,-0.104328,-0.380865,0.0429768
[0:01:15.300000],14.386,7.08145,174.555,0.0547708,-0.0552591,0.127727,0.988877,-0.0927232,-0.379555,0.0372699
[0:01:15.400000],14.3203,7.13626,173.66,0.0625199,-0.0547685,0.127611,0.988459,-0.0958633,-0.348457,0.0463794
[0:01:15.500000],14.2743,7.33818,172.755,0.0705183,-0.0555288,0.12774,0.987862,-0.11318,-0.352824,0.0398381
[0:01:15.600000],14.2698,7.36555,171.885,0.0780478,-0.0547958,0.128134,0.987285,-0.107885,-0.352977,0.0457988
[0:01:15.700000],14.242,7.41057,170.908,0.0864937,-0.0541106,0.128385,0.986587,-0.116688,-0.35627,0.03827
[0:01:15.800000],14.1919,7.48148,169.999,0.0943699,-0.053742,0.128428,0.985879,-0.112714,-0.348066,0.0343071
[0:01:15.900000],14.0982,7.6445,169.075,0.102441,-0.0541912,0.128175,0.985081,-0.108734,-0.353788,0.0408659
[0:01:16],14.1968,7.6779,168.186,0.110163,-0.0533874,0.129465,0.984123,-0.133608,-0.344253,0.0303106
[0:01:16.100000],14.1888,7.8333,167.252,0.118331,-0.0536743,0.129965,0.983093,-0.132813,-0.339024,0.0393589
[0:01:16.200000],14.2749,7.9473,166.316,0.126514,-0.0534941,0.131246,0.981912,-0.141462,-0.332466,0.0401116
[0:01:16.300000],14.2342,8.12907,165.394,0.134577,-0.0540425,0.13151,0.980774,-0.140396,-0.334909,0.0455566
[0:01:16.400000],14.2754,8.18677,164.511,0.142203,-0.0534714,0.132337,0.979618,-0.144404,-0.331902,0.0353727
[0:01:16.500000],14.2865,8.33098,163.572,0.150376,-0.0536041,0.133033,0.978295,-0.117621,-0.316313,0.0441318
[0:01:16.600000],14.2233,8.42466,162.701,0.157867,-0.0534797,0.133012,0.977124,-0.13114,-0.319712,0.0386007
[0:01:16.700000],14.2506,8.55335,161.72,0.166368,-0.0533973,0.133864,0.9756,-0.144605,-0.328145,0.0440422
[0:01:16.800000],14.2201,8.69546,160.84,0.173981,-0.0536252,0.134204,0.974212,-0.132021,-0.312895,0.0324942
[0:01:16.900000],14.3442,8.74872,159.887,0.182186,-0.0527635,0.135774,0.97254,-0.130613,-0.300835,0.0401772
[0:01:17],14.3102,8.83955,159.046,0.189386,-0.0525944,0.136005,0.971141,-0.132099,-0.315833,0.0349577
[0:01:17.100000],14.4123,8.94353,158.2,0.196697,-0.0522964,0.137414,0.969504,-0.135738,-0.289087,0.0426844
[0:01:17.200000],14.4967,8.96782,157.21,0.205134,-0.0511609,0.138613,0.967644,-0.122685,-0.294813,0.0390214
[0:01:17.300000],14.4566,8.96505,156.177,0.213825,-0.0499612,0.138726,0.965807,-0.141043,-0.304705,0.0505603
[0:01:17.400000],14.4361,8.89137,155.318,0.220984,-0.0483367,0.138794,0.964267,-0.128031,-0.290191,0.0361809
[0:01:17.500000],14.5047,8.9371,154.389,0.228864,-0.0474585,0.139842,0.962319,-0.135177,-0.277451,0.0357412
[0:01:17.600000],14.4853,8.8148,153.517,0.236063,-0.0454031,0.139805,0.960683,-0.135882,-0.285327,0.047119
[0:01:17.700000],14.6176,8.86514,152.574,0.24406,-0.044392,0.141379,0.958499,-0.146428,-0.268581,0.0349436
[0:01:17.800000],14.6416,8.8055,151.559,0.252498,-0.0425846,0.141845,0.956324,-0.134517,-0.267984,0.0406299
[0:01:17.900000],14.6834,8.70387,150.614,0.260299,-0.0404678,0.142326,0.954251,-0.145425,-0.262037,0.0501345
[0:01:18],14.7624,8.67895,149.716,0.267779,-0.0389578,0.143241,0.952105,-0.146343,-0.274846,0.0510283
[0:01:18.100000],14.82,8.67284,148.836,0.275095,-0.0376678,0.143999,0.949954,-0.154384,-0.268119,0.0419277
[0:01:18.200000],14.7691,8.6866,147.993,0.282075,-0.0368466,0.143883,0.947955,-0.162752,-0.268482,0.0410069
[0:01:18.300000],14.9037,8.59675,147.121,0.289241,-0.0346653,0.145058,0.945696,-0.153316,-0.26145,0.0421669
[0:01:18.400000],14.9011,8.60579,146.181,0.296999,-0.0335553,0.145339,0.943285,-0.145104,-0.25133,0.0393699
[0:01:18.500000],14.9651,8.60579,145.306,0.304213,-0.0322745,0.146116,0.940908,-0.161156,-0.264421,0.0425233
[0:01:18.600000],14.9258,8.53518,144.418,0.311426,-0.0306656,0.14586,0.938639,-0.14681,-0.258442,0.0446126
[0:01:18.700000],14.9211,8.55472,143.61,0.318049,-0.0298107,0.146084,0.936408,-0.166188,-0.26134,0.0447019
[0:01:18.800000],14.969,8.58344,142.756,0.325056,-0.0288208,0.14677,0.933922,-0.164288,-0.231969,0.0511518
[0:01:18.900000],15.047,8.4841,141.932,0.331699,-0.0267255,0.147336,0.931557,-0.142931,-0.231261,0.0384346
[0:01:19],14.98,8.44866,141.019,0.339071,-0.0254589,0.146902,0.929003,-0.166004,-0.245975,0.0360329
[0:01:19.100000],15.0699,8.35983,140.115,0.346331,-0.0233048,0.14757,0.926272,-0.161068,-0.235692,0.0418922
[0:01:19.200000],15.0875,8.36192,139.186,0.353831,-0.0220709,0.147902,0.92341,-0.167013,-0.233359,0.041183
[0:01:19.300000],15.1498,8.3521,138.263,0.361269,-0.0206018,0.148546,0.920456,-0.169808,-0.22885,0.0479087
[0:01:19.400000],15.1304,8.256,137.444,0.367754,-0.0188265,0.14824,0.917972,-0.143147,-0.223524,0.0446585
[0:01:19.500000],15.1981,8.25578,136.58,0.374674,-0.0174852,0.148918,0.915086,-0.165551,-0.235152,0.0437431
[0:01:19.600000],15.2024,8.17351,135.712,0.38153,-0.0156819,0.14882,0.912297,-0.16215,-0.213793,0.0451515
[0:01:19.700000],15.2753,8.09023,134.883,0.388062,-0.0136918,0.149238,0.909502,-0.145828,-0.229283,0.0532799
[0:01:19.800000],15.3321,8.07403,133.931,0.395599,-0.0121258,0.149743,0.906188,-0.164723,-0.213578,0.0538048
[0:01:19.900000],15.4262,7.9645,133.069,0.402323,-0.00979857,0.150202,0.903175,-0.152029,-0.212347,0.0389034
[0:01:20],15.522,7.89754,132.209,0.409037,-0.00779976,0.150795,0.900074,-0.154407,-0.204403,0.0532278
[0:01:20.100000],15.5864,7.81446,131.326,0.415901,-0.00574703,0.151066,0.896893,-0.143026,-0.193384,0.0529698
[0:01:20.200000],15.5751,7.57097,130.412,0.422835,-0.00266978,0.150155,0.893813,-0.144735,-0.198292,0.0377818
[0:01:20.300000],15.6758,7.47847,129.572,0.429303,-0.000466383,0.150619,0.89065,-0.153233,-0.188369,0.0370712
[0:01:20.400000],15.6195,7.27291,128.679,0.436066,0.00209906,0.149429,0.887557,-0.144706,-0.185785,0.0529662
[0:01:20.500000],15.5239,7.04432,127.849,0.442295,0.00459095,0.147821,0.88473,-0.141706,-0.197386,0.0478936
[0:01:20.600000],15.5051,6.84298,127.064,0.448184,0.00709204,0.146879,0.881902,-0.156547,-0.197125,0.0412329
[0:01:20.700000],15.4611,6.79069,126.183,0.454915,0.00845103,0.146282,0.878537,-0.162031,-0.179879,0.04123
[0:01:20.800000],15.4599,6.63866,125.309,0.46148,0.0107319,0.14561,0.875194,-0.148431,-0.169443,0.0410471
[0:01:20.900000],15.6023,6.47946,124.481,0.46765,0.0135862,0.145981,0.87181,-0.164863,-0.165742,0.0345668
[0:01:21],15.709,6.27622,123.581,0.474296,0.0167249,0.145861,0.868178,-0.154533,-0.160366,0.0502497
[0:01:21.100000],15.7174,6.11854,122.697,0.480855,0.0190854,0.145147,0.864634,-0.15086,-0.158818,0.0427409
[0:01:21.200000],15.6181,5.82937,121.808,0.487331,0.0219784,0.14305,0.861282,-0.149715,-0.170178,0.04769
[0:01:21.300000],15.7479,5.6785,120.98,0.493388,0.0247079,0.143226,0.857723,-0.162772,-0.152767,0.0398058
[0:01:21.400000],15.7603,5.38086,120.215,0.498855,0.0279537,0.141884,0.854679,-0.152989,-0.176181,0.0449981
[0:01:21.500000],15.6879,5.12264,119.462,0.504265,0.0304997,0.140047,0.851714,-0.141791,-0.158969,0.032969
[0:01:21.600000],15.6459,4.80204,118.724,0.509488,0.033605,0.13814,0.848796,-0.145657,-0.146128,0.0470758
[0:01:21.700000],15.598,4.60146,117.993,0.514735,0.0357597,0.136685,0.845772,-0.168799,-0.152239,0.0321715
[0:01:21.800000],15.5158,4.36584,117.251,0.520039,0.0380155,0.134796,0.842727,-0.166979,-0.161201,0.0431356
[0:01:21.900000],15.5463,4.18558,116.409,0.526056,0.0404727,0.133922,0.839009,-0.16566,-0.147249,0.03823
[0:01:22],15.6848,3.90141,115.656,0.531263,0.0440774,0.133366,0.835629,-0.166457,-0.129707,0.0300584
[0:01:22.100000],15.6861,3.68962,114.9,0.536587,0.0465092,0.132103,0.832289,-0.147624,-0.130282,0.0355048
[0:01:22.200000],15.5769,3.43006,114.02,0.542791,0.0488918,0.12974,0.828493,-0.166,-0.145799,0.0310588
[0:01:22.300000],15.6427,3.16327,113.285,0.547838,0.0519683,0.128637,0.825149,-0.164057,-0.139042,0.0416086
[0:01:22.400000],15.7134,2.91579,112.57,0.552728,0.0548939,0.127637,0.821846,-0.139256,-0.127229,0.0394631
[0:01:22.500000],15.6521,2.58544,111.868,0.557495,0.0577462,0.125268,0.81879,-0.15118,-0.134514,0.0412271
[0:01:22.600000],15.738,2.27799,111.008,0.563313,0.0613015,0.123943,0.814742,-0.139268,-0.124848,0.0365903
[0:01:22.700000],15.6519,1.92875,110.217,0.568657,0.0642075,0.121188,0.811212,-0.139561,-0.134754,0.0295606
[0:01:22.800000],15.6657,1.75783,109.408,0.57421,0.0663384,0.119978,0.807299,-0.152919,-0.111087,0.0390549
[0:01:22.900000],15.6911,1.54175,108.595,0.579722,0.0688357,0.118594,0.803346,-0.13557,-0.110626,0.0343091
[0:01:23],15.7195,1.28337,107.893,0.584383,0.0715138,0.117057,0.799953,-0.131961,-0.120351,0.0351302
[0:01:23.100000],15.7357,0.995639,107.168,0.589158,0.074339,0.115241,0.796448,-0.136737,-0.130659,0.0462806
[0:01:23.200000],15.7306,0.738988,106.494,0.593602,0.0767679,0.113441,0.79317,-0.142925,-0.109047,0.0419185
[0:01:23.300000],15.7596,0.347185,105.688,0.598783,0.0804157,0.111054,0.789242,-0.136824,-0.103387,0.0358892
[0:01:23.400000],15.7954,0.0802744,104.912,0.603833,0.0831829,0.109347,0.785337,-0.133731,-0.101245,0.0312819
[0:01:23.500000],15.8168,-0.25328,104.166,0.608604,0.0862813,0.107177,0.78161,-0.132106,-0.0961102,0.0332841
[0:01:23.600000],15.7953,-0.501183,103.475,0.613087,0.0884925,0.10518,0.778123,-0.140949,-0.114906,0.030402
[0:01:23.700000],15.7424,-0.852968,102.789,0.617433,0.0912096,0.102392,0.774737,-0.151117,-0.120223,0.0459073
[0:01:23.800000],15.7393,-1.26207,102.029,0.622163,0.0946158,0.0995353,0.770907,-0.13842,-0.0895573,0.0314314
[0:01:23.900000],15.7742,-1.64916,101.395,0.626001,0.0979397,0.0971203,0.767687,-0.131562,-0.0873493,0.0356684
[0:01:24],15.6977,-2.02463,100.629,0.630806,0.100658,0.0938759,0.763795,-0.153493,-0.0939425,0.0337994
[0:01:24.100000],15.5594,-2.38975,99.9446,0.635111,0.102862,0.0903196,0.760355,-0.140513,-0.105837,0.0398561
[0:01:24.200000],15.5889,-2.83681,99.1683,0.639762,0.106569,0.0873002,0.756288,-0.134208,-0.0995218,0.028678
[0:01:24.300000],15.4798,-3.17443,98.5235,0.643758,0.10865,0.0840701,0.752959,-0.137346,-0.103344,0.036402
[0:01:24.400000],15.447,-3.45411,97.8498,0.647912,0.110772,0.0816199,0.749348,-0.151863,-0.0803793,0.0290753
[0:01:24.500000],15.2884,-3.73316,97.239,0.651758,0.112107,0.0783937,0.746152,-0.149949,-0.0863013,0.0389526
[0:01:24.600000],15.4785,-4.55596,96.5494,0.655158,0.118947,0.0741903,0.742537,-0.16476,-0.0930016,0.0441248
[0:01:24.700000],15.3958,-4.97303,95.8585,0.659246,0.121577,0.0705091,0.738841,-0.152788,-0.0868155,0.0387112
[0:01:24.800000],15.3048,-5.27768,95.1638,0.66347,0.123408,0.0674,0.735037,-0.142703,-0.0904132,0.0314262
[0:01:24.900000],15.2707,-5.58736,94.5446,0.667119,0.125525,0.0646865,0.731612,-0.139844,-0.0754851,0.035487
[0:01:25],15.5114,-6.29069,93.8097,0.670713,0.131752,0.0612268,0.727517,-0.167922,-0.0981594,0.0494147
[0:01:25.100000],15.6992,-6.99456,93.083,0.674247,0.137619,0.057361,0.723469,-0.174265,-0.0802824,0.0395736
[0:01:25.200000],15.8903,-7.74784,92.4018,0.67736,0.143736,0.0532022,0.719679,-0.18059,-0.0803815,0.0522894
[0:01:25.300000],15.9591,-8.4351,91.826,0.679994,0.148624,0.0487453,0.716511,-0.187399,-0.0800249,0.057474
[0:01:25.400000],16.1161,-9.12851,91.1173,0.683283,0.154079,0.0445717,0.71249,-0.186481,-0.0929205,0.0549312
[0:01:25.500000],16.2002,-9.92344,90.3884,0.686596,0.159661,0.0392293,0.708379,-0.184112,-0.0965404,0.0602236
[0:01:25.600000],16.3518,-10.6435,89.71,0.689543,0.165115,0.0347672,0.704488,-0.198491,-0.0803443,0.0517545
[0:01:25.700000],16.4246,-11.4014,89.0105,0.692619,0.170267,0.0294922,0.700474,-0.210072,-0.0794846,0.05209
[0:01:25.800000],16.56,-12.234,88.3495,0.69519,0.176162,0.024128,0.696664,-0.189077,-0.0845199,0.0709187
[0:01:25.900000],16.6746,-12.977,87.6009,0.698396,0.181354,0.0189948,0.69227,-0.223705,-0.0879008,0.0730286
[0:01:26],16.6972,-13.833,86.9774,0.70075,0.186551,0.0127309,0.688645,-0.230975,-0.0817808,0.0665066
[0:01:26.100000],16.8451,-14.663,86.3516,0.702891,0.192294,0.0073212,0.684951,-0.225301,-0.0972479,0.0714346
[0:01:26.200000],17.0582,-15.3339,85.5989,0.705877,0.19747,0.0030333,0.680425,-0.234354,-0.111276,0.077273
[0:01:26.300000],17.2211,-16.1439,84.9087,0.708269,0.203058,-0.0024009,0.676285,-0.250402,-0.103972,0.082535
[0:01:26.400000],17.3751,-16.902,84.3029,0.710201,0.208234,-0.00746518,0.672638,-0.251368,-0.112333,0.0826213
[0:01:26.500000],17.5265,-17.7033,83.6711,0.712147,0.213569,-0.0129275,0.668814,-0.23579,-0.0963407,0.0928376
[0:01:26.600000],17.5625,-18.5468,82.9871,0.714468,0.218338,-0.0194914,0.664628,-0.253687,-0.116526,0.103852
[0:01:26.700000],17.6494,-19.2561,82.3233,0.716767,0.222619,-0.0248997,0.660538,-0.25368,-0.104048,0.0995634
[0:01:26.800000],17.6624,-19.9277,81.7027,0.718985,0.226178,-0.0304475,0.656675,-0.274183,-0.116548,0.102335
[0:01:26.900000],17.7673,-20.729,80.9795,0.721292,0.230913,-0.0365732,0.65217,-0.279425,-0.121528,0.105225
[0:01:27],17.8721,-21.4499,80.2645,0.723647,0.235143,-0.0422072,0.647693,-0.280421,-0.108035,0.11732
[0:01:27.100000],17.9382,-22.1926,79.5783,0.725812,0.23918,-0.0481968,0.64336,-0.281775,-0.11337,0.118021
[0:01:27.200000],18.0081,-22.8476,78.9183,0.727952,0.242726,-0.0535696,0.639175,-0.293677,-0.119622,0.115513
[0:01:27.300000],18.1194,-23.675,78.2967,0.729356,0.247372,-0.059829,0.635226,-0.28137,-0.121505,0.13229
[0:01:27.400000],18.1708,-24.4383,77.5874,0.731451,0.251184,-0.0662275,0.63067,-0.31154,-0.112596,0.128792
[0:01:27.500000],18.1943,-25.0991,76.8327,0.734029,0.254194,-0.072231,0.625791,-0.298086,-0.102349,0.1407
[0:01:27.600000],18.3468,-25.8513,76.0813,0.736025,0.258409,-0.0781908,0.620986,-0.301943,-0.131425,0.137658
[0:01:27.700000],18.3564,-26.6316,75.3561,0.738065,0.261776,-0.085104,0.616227,-0.328318,-0.129185,0.142625
[0:01:27.800000],18.335,-27.4389,74.652,0.739933,0.265,-0.0923618,0.611546,-0.311083,-0.114891,0.166114
[0:01:27.900000],18.3294,-28.1941,73.9844,0.741635,0.268018,-0.0991298,0.607093,-0.332751,-0.100668,0.159474
[0:01:28],18.4215,-28.9355,73.2434,0.743468,0.271456,-0.105496,0.602232,-0.322448,-0.121909,0.161516
[0:01:28.100000],18.4167,-29.6513,72.543,0.745318,0.274099,-0.112138,0.597529,-0.328094,-0.10178,0.167413
[0:01:28.200000],18.3433,-30.3752,71.9094,0.746909,0.27632,-0.11906,0.593165,-0.352645,-0.106488,0.17849
[0:01:28.300000],18.4184,-31.1552,71.1071,0.748804,0.279501,-0.126045,0.587818,-0.354699,-0.12416,0.196315
[0:01:28.400000],18.4729,-31.8495,70.3608,0.750618,0.282132,-0.132442,0.58282,-0.349467,-0.112368,0.189699
[0:01:28.500000],18.3627,-32.5499,69.7438,0.752109,0.283781,-0.139426,0.578452,-0.356576,-0.131349,0.191395
[0:01:28.600000],18.2432,-33.3148,69.1672,0.753192,0.285628,-0.146825,0.574288,-0.367355,-0.106291,0.211284
[0:01:28.700000],18.3188,-33.9742,68.4584,0.75469,0.288051,-0.152857,0.569517,-0.372296,-0.124072,0.206207
[0:01:28.800000],18.4169,-34.6463,67.7219,0.756172,0.290562,-0.15897,0.56458,-0.362576,-0.110331,0.219028
[0:01:28.900000],18.3929,-35.3835,67.0305,0.757493,0.292523,-0.166057,0.559736,-0.371405,-0.108774,0.228607
[0:01:29],18.3612,-36.0573,66.3119,0.759091,0.294045,-0.172824,0.554702,-0.377596,-0.128889,0.225275
[0:01:29.100000],18.3954,-36.7465,65.5967,0.760399,0.29599,-0.179396,0.549769,-0.375254,-0.129048,0.244405
[0:01:29.200000],18.3154,-37.5055,64.8705,0.761783,0.297353,-0.187059,0.544539,-0.39967,-0.123705,0.246024
[0:01:29.300000],18.4316,-38.2586,64.0655,0.762977,0.299771,-0.193978,0.539093,-0.399363,-0.108033,0.258763
[0:01:29.400000],18.3985,-38.8683,63.346,0.764536,0.300688,-0.200378,0.534007,-0.412445,-0.124185,0.269185
[0:01:29.500000],18.307,-39.5307,62.7478,0.765469,0.30156,-0.207118,0.529591,-0.395585,-0.123153,0.269441
[0:01:29.600000],18.2151,-40.1246,62.0248,0.767145,0.301869,-0.213704,0.524346,-0.406537,-0.107453,0.277555
[0:01:29.700000],18.0431,-40.8273,61.4445,0.767982,0.302242,-0.221065,0.519836,-0.422274,-0.118369,0.278668
[0:01:29.800000],17.9479,-41.4489,60.7085,0.76953,0.302453,-0.227908,0.51444,-0.417201,-0.103317,0.277499
[0:01:29.900000],17.8588,-42.1248,60.0552,0.770459,0.302988,-0.234901,0.509566,-0.425386,-0.124701,0.29524
[0:01:30],17.0984,-41.5319,59.8518,0.775292,0.295302,-0.234526,0.506914,-0.425672,-0.100737,0.280625
[0:01:30.100000],16.2625,-40.888,59.6742,0.780274,0.286925,-0.234009,0.504314,-0.412944,-0.110718,0.273802
[0:01:30.200000],15.5119,-40.4224,59.4752,0.784475,0.279691,-0.234422,0.50166,-0.386515,-0.0930248,0.262576
[0:01:30.300000],14.6598,-39.9087,59.3871,0.788508,0.271772,-0.234631,0.499589,-0.387659,-0.109128,0.253671
[0:01:30.400000],13.7749,-39.4321,59.1622,0.793006,0.263439,-0.235541,0.496495,-0.385529,-0.0956716,0.254029
[0:01:30.500000],13.0471,-39.0082,58.989,0.796677,0.256458,-0.235996,0.494051,-0.369484,-0.0810181,0.243538
[0:01:30.600000],12.2545,-38.6175,58.7097,0.800778,0.248898,-0.237171,0.490713,-0.362705,-0.0796144,0.227975
[0:01:30.700000],11.4631,-38.1928,58.5906,0.804212,0.241516,-0.23771,0.48852,-0.343346,-0.085774,0.23614
[0:01:30.800000],10.5491,-37.7442,58.4037,0.808177,0.233007,-0.238706,0.485615,-0.343521,-0.0813671,0.224008
[0:01:30.900000],9.6792,-37.3689,58.2836,0.811473,0.225186,-0.239881,0.483224,-0.319163,-0.0577662,0.215036
[0:01:31],8.96518,-37.034,58.1425,0.814368,0.218551,-0.240709,0.480982,-0.328851,-0.0530591,0.207198
[0:01:31.100000],8.08147,-36.7045,58.0268,0.817399,0.210756,-0.242213,0.47856,-0.319734,-0.0589447,0.214225
[0:01:31.200000],7.27346,-36.4039,57.739,0.820853,0.203218,-0.243892,0.475041,-0.321684,-0.0500876,0.208274
[0:01:31.300000],6.5735,-36.2262,57.605,0.823094,0.197229,-0.245718,0.47274,-0.287812,-0.0176479,0.191167
[0:01:31.400000],5.69654,-36.0022,57.5272,0.825474,0.18989,-0.247815,0.470497,-0.300646,-0.0347741,0.199518
[0:01:31.500000],5.05352,-35.7401,57.2049,0.828505,0.183539,-0.249048,0.467026,-0.305789,-0.00833116,0.19435
[0:01:31.600000],4.38739,-35.4733,56.9911,0.831089,0.177219,-0.250131,0.464287,-0.282532,-0.0220213,0.193558
[0:01:31.700000],3.80534,-35.261,56.7829,0.833341,0.171716,-0.251239,0.461715,-0.295503,-0.000300229,0.175753
[0:01:31.800000],3.2046,-34.9671,56.4802,0.836155,0.165539,-0.251933,0.458493,-0.28618,-0.0094365,0.177351
[0:01:31.900000],2.49673,-34.7684,56.28,0.838433,0.159157,-0.253575,0.455679,-0.269967,0.00943974,0.170717
[0:01:32],1.8272,-34.5776,56.1534,0.840299,0.153233,-0.254997,0.453473,-0.274308,0.00469016,0.168706
[0:01:32.100000],1.18999,-34.3805,55.8821,0.842663,0.147185,-0.256411,0.450281,-0.263172,0.0183206,0.172134
[0:01:32.200000],0.454148,-34.1972,55.751,0.844523,0.140763,-0.258107,0.447875,-0.273469,0.00687143,0.17543
[0:01:32.300000],-0.193754,-34.0015,55.5808,0.846408,0.134839,-0.259392,0.445389,-0.250926,0.0111044,0.171664
[0:01:32.400000],-0.717727,-33.9348,55.2876,0.848298,0.13004,-0.261267,0.442112,-0.247519,0.0398734,0.16967
[0:01:32.500000],-1.29381,-33.7422,55.0457,0.850294,0.124471,-0.262327,0.439244,-0.238623,0.0263452,0.166847
[0:01:32.600000],-2.01886,-33.4597,54.9631,0.851993,0.117799,-0.263099,0.437327,-0.253926,0.0351903,0.17242
[0:01:32.700000],-2.53975,-33.2327,54.6396,0.854232,0.112297,-0.263724,0.434018,-0.244879,0.0562934,0.161453
[0:01:32.800000],-3.28882,-33.0423,54.508,0.855843,0.105665,-0.265268,0.43156,-0.229401,0.0448587,0.161172
[0:01:32.900000],-3.80961,-32.9126,54.2195,0.857664,0.100599,-0.266521,0.428373,-0.239892,0.0670721,0.167495
[0:01:33],-4.50864,-32.8578,54.0393,0.859044,0.0947305,-0.268872,0.425467,-0.233535,0.0510225,0.15472
[0:01:33.100000],-5.1974,-32.7603,53.7919,0.860708,0.0886025,-0.270895,0.422128,-0.250171,0.0637319,0.161674
[0:01:33.200000],-5.8383,-32.5936,53.5712,0.862331,0.0826158,-0.272177,0.419195,-0.23814,0.0752082,0.168586
[0:01:33.300000],-6.49137,-32.3491,53.2778,0.864334,0.0760514,-0.272945,0.415799,-0.236004,0.0729304,0.164899
[0:01:33.400000],-7.18513,-32.2926,53.0418,0.865738,0.0700328,-0.275184,0.412445,-0.233218,0.0702137,0.161566
[0:01:33.500000],-7.80212,-32.0577,52.8396,0.867274,0.0639738,-0.275772,0.409802,-0.239697,0.081672,0.168342
[0:01:33.600000],-8.40031,-31.9171,52.6321,0.868597,0.0584004,-0.276971,0.407013,-0.238225,0.100083,0.163726
[0:01:33.700000],-9.10347,-31.7258,52.4925,0.869785,0.0519905,-0.278108,0.404563,-0.21543,0.0891731,0.165892
[0:01:33.800000],-9.64377,-31.6143,52.2333,0.871133,0.0468263,-0.279292,0.401466,-0.22177,0.102019,0.157952
[0:01:33.900000],-10.2268,-31.5082,52.0958,0.872029,0.0416474,-0.280594,0.399176,-0.217018,0.0974832,0.15532
[0:01:34],-10.7516,-31.3843,51.9938,0.872784,0.0369243,-0.281533,0.397327,-0.213464,0.114528,0.166864
[0:01:34.100000],-11.2289,-31.1163,51.873,0.873814,0.0319557,-0.281231,0.395703,-0.226066,0.125888,0.163948
[0:01:34.200000],-11.6376,-30.9614,51.6321,0.875017,0.0276491,-0.28155,0.393135,-0.2149,0.132582,0.154027
[0:01:34.300000],-12.3187,-30.7191,51.5237,0.875944,0.0212462,-0.282103,0.391068,-0.212124,0.1161,0.156404
[0:01:34.400000],-12.8512,-30.543,51.279,0.877155,0.0158925,-0.282645,0.388206,-0.233161,0.137491,0.151919
[0:01:34.500000],-13.4822,-30.3111,51.1532,0.878029,0.00985745,-0.283067,0.386115,-0.228083,0.13451,0.154589
[0:01:34.600000],-13.9975,-30.0094,50.9955,0.879073,0.00435743,-0.282567,0.384202,-0.228109,0.127006,0.154478
[0:01:34.700000],-14.586,-29.7609,50.8075,0.880097,-0.00157811,-0.282689,0.381782,-0.225691,0.140138,0.166056
[0:01:34.800000],-15.0108,-29.4612,50.5937,0.881252,-0.0065197,-0.281863,0.379671,-0.222913,0.13818,0.167585
[0:01:34.900000],-15.4405,-29.1953,50.4303,0.882158,-0.0112451,-0.281292,0.377876,-0.216487,0.152959,0.148982
[0:01:35],-16.0078,-29.0334,50.368,0.882533,-0.0163859,-0.281946,0.376321,-0.200957,0.166053,0.150186
[0:01:35.100000],-16.6244,-28.8288,50.2592,0.883081,-0.0221876,-0.282425,0.374375,-0.209795,0.154339,0.158681
[0:01:35.200000],-17.2383,-28.505,50.1446,0.883774,-0.0284427,-0.281991,0.372639,-0.214845,0.166319,0.15144
[0:01:35.300000],-17.6089,-28.3723,49.9279,0.884561,-0.0323427,-0.282148,0.370328,-0.217264,0.17757,0.159964
[0:01:35.400000],-18.1589,-28.1066,49.7821,0.885221,-0.0379632,-0.281898,0.368401,-0.227583,0.183545,0.168407
[0:01:35.500000],-18.6092,-27.8793,49.5805,0.886009,-0.0428051,-0.281578,0.366214,-0.212544,0.194258,0.169683
[0:01:35.600000],-18.9597,-27.7383,49.3572,0.886767,-0.0466011,-0.281558,0.363926,-0.209574,0.191084,0.167349
[0:01:35.700000],-19.4776,-27.4063,49.2211,0.887398,-0.0522037,-0.280667,0.362312,-0.203584,0.174264,0.159336
[0:01:35.800000],-19.9647,-27.1886,49.0978,0.887824,-0.0571042,-0.280522,0.360636,-0.210462,0.178303,0.169462
[0:01:35.900000],-20.4109,-26.8406,48.9226,0.888563,-0.0623082,-0.279238,0.358949,-0.214327,0.207922,0.160661
[0:01:36],-20.859,-26.4508,48.6851,0.889507,-0.0678332,-0.277595,0.356877,-0.223688,0.205407,0.171011
[0:01:36.100000],-21.2958,-26.0819,48.592,0.889947,-0.0728397,-0.276143,0.355917,-0.202961,0.191633,0.164586
[0:01:36.200000],-21.698,-25.7637,48.4827,0.890372,-0.0774242,-0.274942,0.354814,-0.203337,0.21097,0.168852
[0:01:36.300000],-22.1436,-25.5128,48.2998,0.890895,-0.0822676,-0.274317,0.35289,-0.214038,0.22807,0.159092
[0:01:36.400000],-22.6786,-25.2913,48.1856,0.89108,-0.0875307,-0.274222,0.351227,-0.200536,0.209218,0.159798
[0:01:36.500000],-23.0199,-24.9395,48.0335,0.891634,-0.0918649,-0.272518,0.350038,-0.208648,0.218984,0.167731
[0:01:36.600000],-23.3739,-24.5535,47.9054,0.892111,-0.0963652,-0.270608,0.349095,-0.214249,0.236544,0.172781
[0:01:36.700000],-23.7957,-24.3074,47.7377,0.89249,-0.100962,-0.269904,0.347367,-0.199596,0.224539,0.159065
[0:01:36.800000],-24.3107,-23.8597,47.6049,0.892832,-0.106949,-0.267992,0.346174,-0.209918,0.225153,0.158216
[0:01:36.900000],-24.6787,-23.416,47.4361,0.893375,-0.111855,-0.265619,0.34505,-0.219791,0.228071,0.157891
[0:01:37],-25.1406,-23.141,47.3431,0.893423,-0.116688,-0.264856,0.343911,-0.19335,0.240531,0.161122
[0:01:37.100000],-25.4635,-22.7214,47.1371,0.894041,-0.121228,-0.262465,0.342566,-0.197347,0.235212,0.166558
[0:01:37.200000],-25.7659,-22.4271,47.0135,0.894311,-0.124953,-0.261028,0.341618,-0.200051,0.255231,0.16695
[0:01:37.300000],-26.0956,-21.9334,46.9467,0.894507,-0.129489,-0.258232,0.341542,-0.220025,0.244782,0.164705
[0:01:37.400000],-26.4449,-21.4655,46.9088,0.894542,-0.134015,-0.255717,0.341596,-0.216221,0.252236,0.169083
[0:01:37.500000],-26.6683,-20.9673,46.7331,0.895125,-0.137969,-0.252431,0.340939,-0.211779,0.274472,0.15941
[0:01:37.600000],-27.0058,-20.5826,46.6022,0.895338,-0.142292,-0.25038,0.340114,-0.208247,0.259831,0.164898
[0:01:37.700000],-27.4264,-20.1941,46.602,0.895033,-0.14699,-0.248705,0.340147,-0.192919,0.278812,0.174917
[0:01:37.800000],-27.7324,-19.7177,46.547,0.895054,-0.151227,-0.245957,0.340231,-0.201644,0.270231,0.158124
[0:01:37.900000],-28.1008,-19.1874,46.4534,0.895101,-0.156224,-0.242933,0.340024,-0.196396,0.293023,0.165624
[0:01:38],-28.3658,-18.7098,46.375,0.895184,-0.160183,-0.240013,0.340037,-0.178075,0.274476,0.15945
[0:01:38.100000],-28.6621,-18.313,46.3018,0.895147,-0.164079,-0.237798,0.339833,-0.180297,0.273976,0.161386
[0:01:38.200000],-29.0046,-17.7986,46.1798,0.895205,-0.168852,-0.234755,0.339457,-0.182747,0.28347,0.162786
[0:01:38.300000],-29.2202,-17.4093,46.0166,0.895499,-0.172261,-0.232212,0.338716,-0.175538,0.302008,0.16408
[0:01:38.400000],-29.5299,-16.9741,46.0437,0.895081,-0.176177,-0.229883,0.339395,-0.177682,0.288383,0.174728
[0:01:38.500000],-29.8273,-16.4943,45.8583,0.895295,-0.180576,-0.226848,0.33856,-0.181015,0.291089,0.166121
[0:01:38.600000],-30.095,-15.9596,45.7492,0.895312,-0.184774,-0.22342,0.338529,-0.178768,0.321302,0.17654
[0:01:38.700000],-30.2278,-15.5698,45.6389,0.895497,-0.187399,-0.220683,0.338393,-0.194804,0.323975,0.170203
[0:01:38.800000],-30.4835,-15.1339,45.5949,0.895274,-0.191014,-0.218063,0.338659,-0.175809,0.310458,0.172654
[0:01:38.900000],-30.6573,-14.7206,45.4639,0.895421,-0.194068,-0.215224,0.338351,-0.168657,0.327965,0.170593
[0:01:39],-30.9803,-14.2199,45.4071,0.89508,-0.198445,-0.212283,0.338572,-0.195535,0.31363,0.172124
[0:01:39.100000],-31.1388,-13.721,45.2702,0.895233,-0.201669,-0.208725,0.338476,-0.167736,0.312741,0.159989
[0:01:39.200000],-31.4023,-13.0891,45.203,0.894967,-0.206036,-0.204583,0.339076,-0.189051,0.312216,0.174835
[0:01:39.300000],-31.5879,-12.6458,45.1859,0.894666,-0.209045,-0.201731,0.339737,-0.171927,0.3235,0.16513
[0:01:39.400000],-31.8214,-12.0497,45.0869,0.894485,-0.21309,-0.197706,0.340068,-0.186177,0.324455,0.177657
[0:01:39.500000],-31.924,-11.4174,45.0117,0.89444,-0.216183,-0.193054,0.340906,-0.181841,0.337993,0.17448
[0:01:39.600000],-32.1855,-10.9269,44.9421,0.894069,-0.220011,-0.189961,0.341166,-0.16032,0.335527,0.163854
[0:01:39.700000],-32.3271,-10.4156,44.9131,0.893779,-0.2229,-0.186427,0.341999,-0.167481,0.330711,0.174739
[0:01:39.800000],-32.4704,-9.74997,44.9102,0.893343,-0.226275,-0.18177,0.343425,-0.16648,0.34035,0.167994
[0:01:39.900000],-32.5538,-9.17167,44.9793,0.892801,-0.22877,-0.177741,0.345286,-0.148163,0.351974,0.159554
[0:01:40],-32.6065,-8.54487,44.9947,0.892439,-0.231268,-0.17314,0.346893,-0.154993,0.357004,0.174921
[0:01:40.100000],-32.8166,-8.02313,45.0051,0.891782,-0.23464,-0.169809,0.347962,-0.137742,0.361316,0.163999
[0:01:40.200000],-32.9247,-7.56261,44.9672,0.891483,-0.237079,-0.166536,0.348657,-0.134478,0.366895,0.169652
[0:01:40.300000],-32.9357,-6.96559,44.9007,0.891392,-0.239251,-0.161859,0.349606,-0.144711,0.371921,0.164377
[0:01:40.400000],-32.9914,-6.43444,44.9542,0.89085,-0.241376,-0.158071,0.351256,-0.135931,0.367034,0.168818
[0:01:40.500000],-33.1286,-5.84939,44.8891,0.890448,-0.244469,-0.153867,0.352004,-0.134079,0.362544,0.167308
[0:01:40.600000],-33.1887,-5.30649,44.9135,0.889932,-0.246696,-0.149939,0.353445,-0.147293,0.372346,0.161738
[0:01:40.700000],-33.2905,-4.76671,45.0192,0.889054,-0.249127,-0.146338,0.355453,-0.137481,0.354075,0.163724
[0:01:40.800000],-33.4398,-4.13282,45.1427,0.887926,-0.252215,-0.142206,0.357767,-0.140184,0.374785,0.163459
[0:01:40.900000],-33.5785,-3.56816,45.1471,0.887206,-0.255138,-0.138314,0.359003,-0.120708,0.376004,0.168452
[0:01:41],-33.7166,-3.05188,45.2773,0.886102,-0.257742,-0.135074,0.361096,-0.126055,0.376465,0.169902
[0:01:41.100000],-33.7714,-2.40346,45.4122,0.885039,-0.260131,-0.130573,0.363639,-0.113225,0.391292,0.164919
[0:01:41.200000],-33.9055,-1.79428,45.6006,0.88362,-0.262946,-0.126752,0.366404,-0.124329,0.372577,0.173221
[0:01:41.300000],-33.9638,-1.2072,45.749,0.882489,-0.265153,-0.122773,0.368887,-0.0958362,0.384007,0.163924
[0:01:41.400000],-34.0265,-0.67865,45.9368,0.881245,-0.267165,-0.119353,0.371521,-0.105655,0.377065,0.167644
[0:01:41.500000],-34.0873,-0.161628,46.1095,0.88004,-0.269145,-0.115987,0.374007,-0.0990734,0.377372,0.165742
[0:01:41.600000],-34.1892,0.491272,46.2081,0.878814,-0.271961,-0.111541,0.376198,-0.0964673,0.385112,0.167987
[0:01:41.700000],-34.2802,0.999037,46.3242,0.877678,-0.274203,-0.10822,0.378188,-0.0949301,0.389167,0.166596
[0:01:41.800000],-34.2761,1.55105,46.542,0.87636,-0.275769,-0.104493,0.381142,-0.0953078,0.394664,0.169968
[0:01:41.900000],-34.3821,2.11446,46.6933,0.874956,-0.27828,-0.10089,0.383506,-0.0791929,0.383808,0.183111
[0:01:42],-34.3303,2.61597,46.8946,0.873814,-0.279346,-0.0973583,0.386238,-0.0779547,0.404403,0.16819
[0:01:42.100000],-34.3413,3.31087,47.1736,0.871992,-0.281466,-0.092749,0.389934,-0.0911723,0.399691,0.17797
[0:01:42.200000],-34.3423,3.93223,47.2818,0.87083,-0.283415,-0.0882545,0.392156,-0.0813259,0.389736,0.176593
[0:01:42.300000],-34.3161,4.52315,47.5122,0.869326,-0.28497,-0.0842052,0.395244,-0.0808062,0.391739,0.177574
[0:01:42.400000],-34.2099,5.24332,47.7708,0.867715,-0.286332,-0.078961,0.398867,-0.0695642,0.389793,0.172229
[0:01:42.500000],-34.1498,5.90647,48.0346,0.866008,-0.287867,-0.0743292,0.402346,-0.0592656,0.388664,0.168972
[0:01:42.600000],-34.0212,6.57723,48.288,0.864462,-0.288932,-0.0693738,0.405778,-0.064779,0.413141,0.184828
[0:01:42.700000],-33.8801,7.08029,48.5875,0.863,-0.289341,-0.0657742,0.409182,-0.0405583,0.397712,0.178225
[0:01:42.800000],-33.6998,7.78428,48.9275,0.861155,-0.290112,-0.0605962,0.413304,-0.0560236,0.41578,0.170119
[0:01:42.900000],-33.63,8.42058,49.3011,0.85897,-0.291498,-0.0564226,0.417446,-0.0316623,0.394745,0.176065
[0:01:43],-33.6391,8.96318,49.5456,0.85717,-0.293243,-0.0529306,0.420369,-0.0182115,0.388956,0.169286
[0:01:43.100000],-33.4193,9.60731,49.9292,0.855245,-0.293569,-0.0481803,0.424614,-0.0221924,0.41324,0.178472
[0:01:43.200000],-33.3034,10.2447,50.3725,0.8528,-0.29465,-0.0440203,0.429209,-0.0360763,0.408324,0.168419
[0:01:43.300000],-33.0861,10.8057,50.6556,0.851312,-0.294808,-0.0396514,0.432468,-0.013632,0.407642,0.168119
[0:01:43.400000],-32.9292,11.4218,51.1197,0.848852,-0.295563,-0.0355547,0.43712,-0.017484,0.405664,0.181454
[0:01:43.500000],-32.828,11.9223,51.452,0.846925,-0.296405,-0.0322143,0.440532,-0.0136293,0.398735,0.182365
[0:01:43.600000],-32.5745,12.5728,51.8989,0.84464,-0.296624,-0.0274426,0.445072,-0.0129722,0.411678,0.18004
[0:01:43.700000],-32.4571,13.2139,52.3232,0.842064,-0.297852,-0.0232132,0.449353,0.00544263,0.405173,0.181378
[0:01:43.800000],-32.3286,13.7366,52.8664,0.839237,-0.298599,-0.020154,0.454266,0.0196859,0.402986,0.171384
[0:01:43.900000],-32.155,14.2939,53.3527,0.836644,-0.299177,-0.0165097,0.458793,0.0189902,0.407117,0.179864
[0:01:44],-32.0166,14.7394,53.7385,0.834554,-0.299666,-0.0135914,0.462363,0.0207806,0.389513,0.186134
[0:01:44.100000],-31.7877,15.3277,54.1059,0.832456,-0.300018,-0.00918001,0.466011,0.0267904,0.406619,0.188125
[0:01:44.200000],-31.6493,15.9038,54.5731,0.829705,-0.301005,-0.00549214,0.470318,0.0301874,0.382343,0.183527
[0:01:44.300000],-31.4718,16.4875,54.9967,0.827183,-0.301769,-0.00147637,0.474285,0.0378348,0.394008,0.186161
[0:01:44.400000],-31.2681,16.9837,55.5084,0.824518,-0.302063,0.00175561,0.478717,0.0347147,0.407747,0.183649
[0:01:44.500000],-31.1029,17.5016,55.9376,0.822016,-0.302739,0.00520585,0.482551,0.0540895,0.379285,0.184516
[0:01:44.600000],-30.7964,18.1357,56.4883,0.819081,-0.30286,0.00980289,0.487371,0.0573015,0.400519,0.180161
[0:01:44.700000],-30.5848,18.7046,56.9414,0.816417,-0.303455,0.0137663,0.491359,0.0595804,0.40213,0.187235
[0:01:44.800000],-30.3476,19.2344,57.4189,0.813771,-0.303762,0.0174815,0.495422,0.0499533,0.400771,0.183018
[0:01:44.900000],-30.1651,19.7775,57.8946,0.810925,-0.304539,0.0210621,0.499457,0.0723157,0.389503,0.17783
[0:01:45],-29.7978,20.1362,58.4747,0.808514,-0.303383,0.0238016,0.503926,0.084915,0.383339,0.184789
[0:01:45.100000],-29.4203,20.5662,59.0786,0.805823,-0.302463,0.0270676,0.508603,0.0680871,0.383331,0.187789
[0:01:45.200000],-29.1947,20.9736,59.599,0.803124,-0.302541,0.0297191,0.512661,0.0938391,0.388101,0.186477
[0:01:45.300000],-28.9561,21.5137,60.2483,0.799527,-0.303101,0.0330695,0.517723,0.0764409,0.377801,0.187635
[0:01:45.400000],-28.5863,22.091,60.9049,0.796109,-0.30294,0.0372691,0.522775,0.0986746,0.368184,0.181439
[0:01:45.500000],-28.2267,22.5138,61.5039,0.793267,-0.302285,0.0404438,0.52722,0.10184,0.38097,0.18285
[0:01:45.600000],-28.0519,22.9939,62.0271,0.790113,-0.30314,0.0433913,0.531215,0.0974201,0.358894,0.187492
[0:01:45.700000],-27.6836,23.3827,62.6592,0.787163,-0.302382,0.0462805,0.535762,0.102131,0.378728,0.187886
[0:01:45.800000],-27.2863,23.791,63.4187,0.783606,-0.301599,0.0491243,0.541138,0.113362,0.375985,0.18321
[0:01:45.900000],-26.9801,24.1449,64.0214,0.780651,-0.301196,0.0515642,0.545389,0.12804,0.355908,0.182362
[0:01:46],-26.5793,24.6285,64.7751,0.776858,-0.300786,0.0550068,0.55067,0.119614,0.37758,0.182784
[0:01:46.100000],-26.1851,25.1329,65.4187,0.773482,-0.300508,0.0588641,0.555158,0.120765,0.372967,0.189066
[0:01:46.200000],-25.8603,25.5528,66.2419,0.769232,-0.300494,0.0613091,0.560777,0.133308,0.351912,0.183472
[0:01:46.300000],-25.5308,26.0117,66.8698,0.765808,-0.300554,0.0645718,0.565049,0.127092,0.345918,0.183694
[0:01:46.400000],-25.1163,26.4323,67.5806,0.762265,-0.299979,0.0677675,0.569751,0.148082,0.339579,0.183849
[0:01:46.500000],-24.7576,26.8187,68.3479,0.758348,-0.299713,0.0703012,0.574789,0.142148,0.339822,0.194728
[0:01:46.600000],-24.2551,27.2859,69.083,0.754715,-0.298878,0.0742234,0.579493,0.140011,0.354797,0.184303
[0:01:46.700000],-23.9039,27.6748,69.7629,0.751141,-0.298717,0.0769792,0.583845,0.161352,0.331586,0.185493
[0:01:46.800000],-23.4358,28.0618,70.6163,0.746954,-0.297949,0.0798739,0.589194,0.153835,0.325291,0.18463
[0:01:46.900000],-23.0051,28.4184,71.3445,0.743357,-0.297257,0.0827013,0.593686,0.179521,0.338123,0.189303
[0:01:47],-22.4339,28.7095,72.2789,0.73919,-0.295562,0.0852836,0.599344,0.18331,0.327888,0.188222
[0:01:47.100000],-22.0343,29.0272,73.0745,0.735189,-0.295045,0.0875329,0.604176,0.165156,0.335382,0.190343
[0:01:47.200000],-21.6193,29.2364,73.8682,0.731493,-0.293969,0.0891321,0.608933,0.195018,0.32079,0.187199
[0:01:47.300000],-21.1937,29.5873,74.6614,0.727413,-0.293528,0.0917759,0.613623,0.178137,0.313851,0.18605
[0:01:47.400000],-20.708,29.7983,75.434,0.723937,-0.292076,0.093852,0.618096,0.197998,0.310411,0.18683
[0:01:47.500000],-20.1241,30.1074,76.4172,0.71927,-0.290697,0.0966133,0.623744,0.188085,0.318529,0.191765
[0:01:47.600000],-19.6306,30.2971,77.3232,0.715062,-0.2893,0.0982962,0.628946,0.205289,0.317859,0.186651
[0:01:47.700000],-19.2266,30.4968,78.177,0.710848,-0.288504,0.0997082,0.633847,0.212995,0.312758,0.193555
[0:01:47.800000],-18.8208,30.7297,79.0656,0.70632,-0.28793,0.101279,0.638901,0.212832,0.295089,0.190107
[0:01:47.900000],-18.3939,30.8931,79.8868,0.702366,-0.286858,0.10269,0.643501,0.201854,0.291427,0.1936
[0:01:48],-17.834,31.0181,80.7194,0.698745,-0.284823,0.104591,0.648025,0.225209,0.293427,0.182661
[0:01:48.100000],-17.2736,31.2439,81.5871,0.694624,-0.283377,0.107097,0.652663,0.222235,0.281228,0.185436
[0:01:48.200000],-16.7296,31.4554,82.4808,0.690314,-0.282031,0.109375,0.657424,0.217513,0.286157,0.191309
[0:01:48.300000],-16.3128,31.5975,83.3687,0.685862,-0.281127,0.11051,0.662263,0.239831,0.272275,0.173883
[0:01:48.400000],-15.6524,31.7487,84.3456,0.681426,-0.278942,0.112922,0.667341,0.247996,0.291576,0.178129
[0:01:48.500000],-15.0729,31.8389,85.2116,0.677545,-0.276852,0.11478,0.67183,0.248541,0.275926,0.171708
[0:01:48.600000],-14.4405,32.1248,86.2422,0.672295,-0.275727,0.11782,0.677021,0.234402,0.278406,0.176944
[0:01:48.700000],-13.989,32.1291,87.162,0.667913,-0.274059,0.118317,0.681931,0.260283,0.266983,0.175833
[0:01:48.800000],-13.3695,32.2398,88.1787,0.663048,-0.272135,0.12028,0.687086,0.258379,0.24973,0.179918
[0:01:48.900000],-12.9581,32.3419,89.0292,0.658663,-0.271233,0.121366,0.691455,0.250607,0.244822,0.170979
[0:01:49],-12.4259,32.4484,90.0543,0.653459,-0.269883,0.122819,0.696646,0.258097,0.252699,0.167419
[0:01:49.100000],-11.7445,32.6017,91.1056,0.648285,-0.268032,0.125434,0.70171,0.276344,0.254127,0.18174
[0:01:49.200000],-11.1534,32.7142,92.1655,0.64289,-0.266524,0.127267,0.706898,0.273786,0.247418,0.180139
[0:01:49.300000],-10.5792,32.7504,93.1997,0.637736,-0.264684,0.128639,0.711992,0.265712,0.231566,0.168694
[0:01:49.400000],-9.8626,32.8474,94.2916,0.63236,-0.262527,0.131162,0.717107,0.268234,0.244739,0.165533
[0:01:49.500000],-9.4426,32.8094,95.2081,0.627647,-0.261041,0.131484,0.721715,0.275977,0.231708,0.166161
[0:01:49.600000],-8.85408,32.7873,96.1961,0.622786,-0.258837,0.132833,0.726458,0.292193,0.211619,0.167939
[0:01:49.700000],-8.36598,32.7015,97.1959,0.617703,-0.256832,0.1332,0.731425,0.28831,0.230351,0.166677
[0:01:49.800000],-7.72129,32.7656,98.2252,0.61242,-0.254975,0.135388,0.736101,0.295048,0.229561,0.170285
[0:01:49.900000],-7.08182,32.7265,99.2725,0.607165,-0.252574,0.136972,0.740973,0.277324,0.200829,0.158944
[0:01:50],-6.52204,32.7378,100.333,0.60149,-0.250968,0.138334,0.745878,0.293787,0.213468,0.162899
[0:01:50.100000],-5.94634,32.6197,101.357,0.596285,-0.248448,0.13922,0.75072,0.306699,0.190899,0.169358
[0:01:50.200000],-5.39772,32.5401,102.355,0.591057,-0.246313,0.140242,0.755353,0.290025,0.182455,0.16214
[0:01:50.300000],-4.80652,32.5422,103.301,0.586067,-0.244457,0.142135,0.759479,0.311114,0.196433,0.151134
[0:01:50.400000],-4.19623,32.5233,104.338,0.580501,-0.242522,0.143887,0.76403,0.301985,0.172479,0.15611
[0:01:50.500000],-3.67702,32.5748,105.374,0.574583,-0.241553,0.145437,0.768504,0.302926,0.183441,0.151308
[0:01:50.600000],-3.1739,32.4696,106.439,0.568645,-0.239701,0.146046,0.773371,0.313707,0.179099,0.15165
[0:01:50.700000],-2.71889,32.4707,107.444,0.56279,-0.238748,0.147032,0.777749,0.312809,0.166792,0.151928
[0:01:50.800000],-2.20888,32.3081,108.411,0.557525,-0.236402,0.14769,0.78212,0.333056,0.15068,0.159241
